timestmp;smpleCnt;grnCnt;led2;led3;grn2Cnt;irCnt;redCnt;accelX;accelY;accelZ;hr3;rr5;rrsecure;spo2
12:57:21.874293;0;140221;31358;32835;139423;106592;106635;-0.031;-0.996;0.274;60.0;0.0;0;0.0
12:57:21.877291;1;237536;31358;32834;257058;237301;237339;-0.025;-0.995;0.273;60.0;0.0;0;0.0
12:57:21.881285;2;207785;31366;32834;241796;368447;368497;-0.024;-0.997;0.281;60.0;0.0;0;0.0
12:57:21.885286;3;184917;31357;32834;211578;493575;493624;-0.026;-0.995;0.284;60.0;0.0;0;0.0
12:57:21.892279;4;174244;31359;32835;199096;524031;524031;-0.029;-0.996;0.282;60.0;0.0;0;0.0
12:57:21.897276;5;170875;31364;32838;195204;524031;524031;-0.029;-0.995;0.278;60.0;0.0;0;0.0
12:57:21.900273;6;171013;31367;32841;195321;524031;524031;-0.031;-0.995;0.283;60.0;0.0;0;0.0
12:57:21.903275;7;171141;31370;32847;195426;524031;524031;-0.028;-0.997;0.284;60.0;0.0;0;0.0
12:57:21.906273;8;171089;31345;32838;195332;524031;524031;-0.027;-0.996;0.286;60.0;0.0;0;0.0
12:57:21.908272;9;170748;31330;32828;195002;524031;524031;-0.029;-0.994;0.283;60.0;0.0;0;0.0
12:57:21.911269;10;170348;31323;32820;194655;524031;524031;-0.028;-0.995;0.277;60.0;0.0;0;0.0
12:57:21.914267;11;170034;31317;32821;194411;524031;524031;-0.030;-0.996;0.280;60.0;0.0;0;0.0
12:57:21.917266;12;169786;61317;62940;194211;524031;524031;-0.031;-0.996;0.278;60.0;0.0;0;0.0
12:57:21.919563;13;169587;62633;64742;194044;524031;524031;-0.029;-0.994;0.283;60.0;0.0;0;0.0
12:57:21.919563;14;169435;62615;64736;193922;524031;524031;-0.030;-0.996;0.281;60.0;0.0;0;0.0
12:57:21.919563;15;169303;62609;64729;193810;524031;524031;-0.027;-0.996;0.282;60.0;0.0;0;0.0
12:57:21.929598;16;169136;62591;64719;193669;524031;524031;-0.030;-0.995;0.282;60.0;0.0;0;0.0
12:57:21.929598;17;169002;62582;64713;193562;524031;524031;-0.029;-0.996;0.282;60.0;0.0;0;0.0
12:57:22.039785;18;168919;62582;64711;193514;524031;524031;-0.029;-0.996;0.281;60.0;0.0;0;0.0
12:57:22.049576;19;168910;62584;64714;193531;524031;524031;-0.029;-0.996;0.281;60.0;0.0;0;0.0
12:57:22.059712;20;168924;62586;64713;193582;524031;524031;-0.028;-0.996;0.282;60.0;0.0;0;0.0
12:57:22.064719;21;168953;62582;64708;193644;524031;524031;-0.028;-0.996;0.281;60.0;0.0;0;0.0
12:57:22.069744;22;168983;62587;64711;193692;524031;524031;-0.030;-0.996;0.280;60.0;0.0;0;0.0
12:57:22.239834;23;169013;62599;64701;193740;524031;524031;-0.027;-0.996;0.280;60.0;0.0;0;0.0
12:57:22.249551;24;169045;114895;117093;193806;524031;524031;-0.027;-0.995;0.286;60.0;0.0;0;0.0
12:57:22.249551;25;169086;123075;127188;193874;524031;524031;-0.026;-0.996;0.279;60.0;0.0;0;0.0
12:57:22.259660;26;169004;122985;127156;193791;524031;524031;-0.027;-0.997;0.280;60.0;0.0;0;0.0
12:57:22.269756;27;168658;122879;127121;193497;524031;524031;-0.027;-0.996;0.277;60.0;0.0;0;0.0
12:57:22.439583;28;168229;122793;127073;193149;524031;524031;-0.026;-0.997;0.280;60.0;0.0;0;0.0
12:57:22.449569;29;167878;122748;127073;192895;524031;524031;-0.027;-0.997;0.277;60.0;0.0;0;0.0
12:57:22.459629;30;167618;122718;127043;192730;524031;524031;-0.027;-0.996;0.276;60.0;0.0;0;0.0
12:57:22.469534;31;167406;122689;127028;192600;524031;524031;-0.026;-0.996;0.282;60.0;0.0;0;0.0
12:57:22.469534;32;167266;122675;127013;192522;524031;524031;-0.025;-0.997;0.280;60.0;0.0;0;0.0
12:57:22.639519;33;167138;122640;126997;192456;524031;524031;-0.026;-0.997;0.281;60.0;0.0;0;0.0
12:57:22.649429;34;166987;122599;126966;192360;524031;524031;-0.028;-0.996;0.279;60.0;0.0;0;0.0
12:57:22.654433;35;166854;122581;126937;192297;524031;524031;-0.026;-0.996;0.277;60.0;0.0;0;0.0
12:57:22.659472;36;166763;125816;130356;192283;524031;524031;-0.026;-0.996;0.277;60.0;0.0;0;0.0
12:57:22.669405;37;166738;125810;130358;192324;524031;524031;-0.026;-0.996;0.279;60.0;0.0;0;0.0
12:57:22.839466;38;166736;125804;130345;192381;524031;524031;-0.026;-0.996;0.278;60.0;0.0;0;0.0
12:57:22.849541;39;166776;125803;130329;192460;524031;524031;-0.026;-0.996;0.278;60.0;0.0;0;0.0
12:57:22.854549;40;166822;125797;130328;192537;524031;524031;-0.027;-0.997;0.279;60.0;0.0;0;0.0
12:57:22.864622;41;166889;125791;130310;192625;524031;524031;-0.024;-0.996;0.279;60.0;0.0;0;0.0
12:57:22.869689;42;166938;125793;130300;192718;524031;524031;-0.025;-0.996;0.280;60.0;0.0;0;0.0
12:57:23.039686;43;167009;125790;130301;192828;524031;524031;-0.025;-0.995;0.277;60.0;0.0;0;0.0
12:57:23.049406;44;167096;125784;130296;192975;524031;524031;-0.026;-0.997;0.277;60.0;0.0;0;0.0
12:57:23.054414;45;167192;125794;130279;193125;524031;524031;-0.026;-0.997;0.275;60.0;0.0;0;0.0
12:57:23.059449;46;167311;125790;130275;193290;524031;524031;-0.025;-0.995;0.282;60.0;0.0;0;0.0
12:57:23.069601;47;167369;125772;130249;193380;524031;524031;-0.025;-0.994;0.275;60.0;0.0;0;0.0
12:57:23.239385;48;167142;125685;130204;193199;524031;524031;-0.025;-0.996;0.275;60.0;0.0;0;0.0
12:57:23.249566;49;166719;125600;130159;192887;524031;524031;-0.025;-0.996;0.272;60.0;0.0;0;0.0
12:57:23.259639;50;166292;125547;130131;192608;524031;524031;-0.024;-0.998;0.277;60.0;0.0;0;0.0
12:57:23.259639;51;165952;125526;130115;192417;524031;524031;-0.025;-0.997;0.275;60.0;0.0;0;0.0
12:57:23.269540;52;165684;125481;130076;192290;524031;524031;-0.025;-0.996;0.274;60.0;0.0;0;0.0
12:57:23.439635;53;165456;125460;130047;192191;524031;524031;-0.023;-0.996;0.277;60.0;0.0;0;0.0
12:57:23.449696;54;165281;125450;130036;192128;524031;524031;-0.022;-0.997;0.274;60.0;0.0;0;0.0
12:57:23.459243;55;165087;125429;130021;192058;524031;524031;-0.024;-0.997;0.273;60.0;0.0;0;0.0
12:57:23.459243;56;164934;125403;129998;192028;524031;524031;-0.025;-0.997;0.273;60.0;0.0;0;0.0
12:57:23.469575;57;164787;125386;129984;191985;524031;524031;-0.024;-0.997;0.270;60.0;0.0;0;0.0
12:57:23.639365;58;164688;125400;129970;192000;524031;524031;-0.024;-0.997;0.269;60.0;0.0;0;0.0
12:57:23.649561;59;164665;125393;129965;192068;524031;524031;-0.024;-0.997;0.273;60.0;0.0;0;0.0
12:57:23.654568;60;164661;125397;129957;192152;524031;524031;-0.023;-0.997;0.273;60.0;0.0;0;0.0
12:57:23.659614;61;164656;125396;129930;192226;524031;524031;-0.023;-0.996;0.272;60.0;0.0;0;0.0
12:57:23.669557;62;164695;125387;129911;192347;524031;524031;-0.023;-0.997;0.273;60.0;0.0;0;0.0
12:57:23.839688;63;164741;125389;129893;192454;524031;524031;-0.023;-0.997;0.270;60.0;0.0;0;0.0
12:57:23.849545;64;164791;125384;129887;192570;524031;524031;-0.023;-0.997;0.273;60.0;0.0;0;0.0
12:57:23.859263;65;164849;125388;129879;192702;524031;524031;-0.022;-0.997;0.272;60.0;0.0;0;0.0
12:57:23.859263;66;164930;125389;129878;192841;524031;524031;-0.022;-0.997;0.274;60.0;0.0;0;0.0
12:57:23.869561;67;165016;125404;129858;192996;524031;524031;-0.023;-0.997;0.274;60.0;0.0;0;0.0
12:57:24.039352;68;165130;125411;129853;193173;524031;524031;-0.022;-0.997;0.273;60.0;0.0;0;0.0
12:57:24.049455;69;165216;125426;129855;193324;524031;524031;-0.023;-0.997;0.274;60.0;0.0;0;0.0
12:57:24.059515;70;165331;125458;129851;193515;524031;524031;-0.021;-0.997;0.274;60.0;0.0;0;0.0
12:57:24.069380;71;165434;125452;129847;193681;524031;524031;-0.022;-0.996;0.269;60.0;0.0;0;0.0
12:57:24.069380;72;165563;125472;129858;193866;524031;524031;-0.023;-0.996;0.270;60.0;0.0;0;0.0
12:57:24.239503;73;165687;125482;129843;194059;524031;524031;-0.022;-0.997;0.270;60.0;0.0;0;0.0
12:57:24.249485;74;165844;125481;129834;194266;524031;524031;-0.020;-0.997;0.274;60.0;0.0;0;0.0
12:57:24.264553;75;165901;125453;129808;194359;524031;524031;-0.021;-0.997;0.270;60.0;0.0;0;0.0
12:57:24.269606;76;165697;125375;129759;194216;524031;524031;-0.022;-0.997;0.273;60.0;0.0;0;0.0
12:57:24.279687;77;165306;125279;129717;193970;524031;524031;-0.022;-0.997;0.267;60.0;0.0;0;0.0
12:57:24.439417;78;164944;125240;129695;193784;524031;524031;-0.021;-0.998;0.272;60.0;0.0;0;0.0
12:57:24.449568;79;164670;125216;129667;193670;524031;524031;-0.022;-0.998;0.270;60.0;0.0;0;0.0
12:57:24.454576;80;164398;125187;129639;193554;524031;524031;-0.020;-0.998;0.273;60.0;0.0;0;0.0
12:57:24.459618;81;164192;125167;129616;193495;524031;524031;-0.019;-0.995;0.271;60.0;0.0;0;0.0
12:57:24.469725;82;164012;125149;129608;193453;524031;524031;-0.020;-0.997;0.272;60.0;0.0;0;0.0
12:57:24.639604;83;163862;125139;129577;193425;524031;524031;-0.021;-0.997;0.274;60.0;0.0;0;0.0
12:57:24.649518;84;163709;125120;129563;193399;524031;524031;-0.019;-0.996;0.270;60.0;0.0;0;0.0
12:57:24.659574;85;163587;125115;129545;193397;524031;524031;-0.020;-0.997;0.270;60.0;656.6;25;0.0
12:57:24.664580;86;163515;125116;129539;193446;524031;524031;-0.020;-0.997;0.266;60.0;0.0;0;0.0
12:57:24.669635;87;163493;125120;129530;193535;524031;524031;-0.021;-0.998;0.268;60.0;0.0;0;0.0
12:57:24.839383;88;163516;125123;129520;193649;524031;524031;-0.020;-0.998;0.271;60.0;0.0;0;0.0
12:57:24.849498;89;163558;125141;129524;193784;524031;524031;-0.021;-0.996;0.272;59.0;0.0;0;0.0
12:57:24.859297;90;163602;125151;129512;193898;524031;524031;-0.021;-0.998;0.270;59.0;0.0;0;0.0
12:57:24.869460;91;163650;125154;129524;194033;524031;524031;-0.022;-0.997;0.268;59.0;0.0;0;0.0
12:57:24.869460;92;163728;125174;129519;194171;524031;524031;-0.021;-0.997;0.270;59.0;0.0;0;0.0
12:57:25.039376;93;163810;125188;129520;194300;524031;524031;-0.020;-0.997;0.272;59.0;0.0;0;0.0
12:57:25.049524;94;163923;125217;129520;194455;524031;524031;-0.020;-0.997;0.270;59.0;0.0;0;0.0
12:57:25.059631;95;164051;125225;129525;194629;524031;524031;-0.020;-0.997;0.270;59.0;0.0;0;0.0
12:57:25.059631;96;164195;125243;129526;194810;524031;524031;-0.020;-0.997;0.275;59.0;0.0;0;0.0
12:57:25.069700;97;164363;125258;129538;195012;524031;524031;-0.020;-0.996;0.271;59.0;0.0;0;0.0
12:57:25.244534;98;164519;125279;129543;195206;524031;524031;-0.021;-0.997;0.270;59.0;0.0;0;0.0
12:57:25.249583;99;164709;125302;129547;195440;524031;524031;-0.021;-0.997;0.268;59.0;0.0;0;0.0
12:57:25.259392;100;164887;125319;129552;195651;524031;524031;-0.020;-0.997;0.277;59.0;0.0;0;0.0
12:57:25.269480;101;165031;125289;129539;195814;524031;524031;-0.020;-0.998;0.273;59.0;0.0;0;0.0
12:57:25.269480;102;164937;125221;129500;195738;524031;524031;-0.023;-0.997;0.269;59.0;0.0;0;0.0
12:57:25.439494;103;164673;125164;129493;195559;524031;524031;-0.022;-0.996;0.268;59.0;0.0;0;0.0
12:57:25.449604;104;164447;125130;129476;195474;524031;524031;-0.019;-0.997;0.271;59.0;0.0;0;0.0
12:57:25.459389;105;164295;125128;129449;195466;524031;524031;-0.020;-0.997;0.274;59.0;0.0;0;0.0
12:57:25.469309;106;164208;125121;129449;195492;524031;524031;-0.021;-0.997;0.271;59.0;0.0;0;0.0
12:57:25.479485;107;164162;125116;129429;195554;524031;524031;-0.020;-0.995;0.274;59.0;858.7;50;0.0
12:57:25.639631;108;164137;125104;129426;195638;524031;524031;-0.020;-0.997;0.272;59.0;0.0;0;0.0
12:57:25.649497;109;164116;125109;129426;195695;524031;524031;-0.019;-0.995;0.272;59.0;0.0;0;0.0
12:57:25.659564;110;164078;125099;129435;195730;524031;524031;-0.022;-0.996;0.270;59.0;0.0;0;0.0
12:57:25.664571;111;164067;125111;129414;195804;524031;524031;-0.022;-0.997;0.270;59.0;0.0;0;0.0
12:57:25.669599;112;164107;125132;129427;195924;524031;524031;-0.021;-0.997;0.268;59.0;0.0;0;0.0
12:57:25.849286;113;164178;125159;129429;196065;524031;524031;-0.021;-0.996;0.271;59.0;0.0;0;0.0
12:57:25.859775;114;164273;125169;129444;196219;524031;524031;-0.021;-0.997;0.268;59.0;0.0;0;0.0
12:57:25.859775;115;164372;125197;129444;196400;524031;524031;-0.020;-0.997;0.271;59.0;0.0;0;0.0
12:57:25.869774;116;164467;125209;129455;196565;524031;524031;-0.021;-0.996;0.268;59.0;0.0;0;0.0
12:57:25.869774;117;164557;125222;129452;196746;524031;524031;-0.021;-0.997;0.272;59.0;0.0;0;0.0
12:57:26.039541;118;164648;125237;129455;196920;524031;524031;-0.018;-0.997;0.272;59.0;0.0;0;0.0
12:57:26.054576;119;164743;125250;129465;197088;524031;524031;-0.020;-0.996;0.269;59.0;0.0;0;0.0
12:57:26.059628;120;164843;125278;129473;197245;524031;524031;-0.022;-0.996;0.270;59.0;0.0;0;0.0
12:57:26.069760;121;164952;125306;129487;197409;524031;524031;-0.020;-0.997;0.272;59.0;0.0;0;0.0
12:57:26.079591;122;165089;125310;129483;197589;524031;524031;-0.018;-0.996;0.273;59.0;0.0;0;0.0
12:57:26.239709;123;165168;125300;129483;197685;524031;524031;-0.020;-0.997;0.271;59.0;0.0;0;0.0
12:57:26.249445;124;165041;125242;129442;197583;524031;524031;-0.020;-0.996;0.269;59.0;0.0;0;0.0
12:57:26.259564;125;164767;125189;129428;197386;524031;524031;-0.019;-0.996;0.268;59.0;0.0;0;0.0
12:57:26.259564;126;164536;125172;129420;197263;524031;524031;-0.018;-0.997;0.270;59.0;0.0;0;0.0
12:57:26.269345;127;164367;125157;129412;197213;524031;524031;-0.020;-0.996;0.272;59.0;0.0;0;0.0
12:57:26.439334;128;164274;125151;129408;197206;524031;524031;-0.019;-0.996;0.275;59.0;0.0;0;0.0
12:57:26.449369;129;164196;125158;129398;197205;524031;524031;-0.017;-0.995;0.273;59.0;0.0;0;0.0
12:57:26.459453;130;164148;125161;129405;197228;524031;524031;-0.020;-0.997;0.269;59.0;0.0;0;0.0
12:57:26.459453;131;164093;125146;129381;197247;524031;524031;-0.022;-0.996;0.270;59.0;0.0;0;0.0
12:57:26.469426;132;164028;125139;129377;197251;524031;524031;-0.020;-0.997;0.270;59.0;0.0;0;0.0
12:57:26.639549;133;164027;125143;129370;197303;524031;524031;-0.019;-0.997;0.269;59.0;0.0;0;0.0
12:57:26.649352;134;164038;125167;129373;197381;524031;524031;-0.020;-0.996;0.268;59.0;0.0;0;0.0
12:57:26.659396;135;164077;125178;129373;197474;524031;524031;-0.020;-0.997;0.269;59.0;1113.6;100;0.0
12:57:26.664402;136;164151;125189;129378;197593;524031;524031;-0.019;-0.997;0.273;59.0;0.0;0;0.0
12:57:26.669465;137;164217;125203;129378;197707;524031;524031;-0.020;-0.996;0.267;59.0;0.0;0;0.0
12:57:26.844546;138;164299;125218;129380;197821;524031;524031;-0.020;-0.997;0.272;59.0;0.0;0;0.0
12:57:26.849597;139;164378;125230;129381;197931;524031;524031;-0.020;-0.997;0.269;59.0;0.0;0;0.0
12:57:26.859544;140;164497;125246;129383;198070;524031;524031;-0.018;-0.996;0.272;59.0;0.0;0;0.0
12:57:26.859544;141;164602;125255;129387;198208;524031;524031;-0.019;-0.997;0.272;59.0;0.0;0;0.0
12:57:26.869580;142;164727;125270;129388;198363;524031;524031;-0.021;-0.997;0.270;59.0;0.0;0;0.0
12:57:27.039473;143;164850;125304;129403;198509;524031;524031;-0.021;-0.997;0.270;59.0;0.0;0;0.0
12:57:27.054490;144;164979;125319;129406;198668;524031;524031;-0.020;-0.997;0.272;59.0;0.0;0;0.0
12:57:27.059551;145;165120;125334;129418;198819;524031;524031;-0.020;-0.995;0.273;59.0;0.0;0;0.0
12:57:27.069619;146;165178;125297;129386;198869;524031;524031;-0.020;-0.996;0.270;59.0;0.0;0;0.0
12:57:27.069619;147;165003;125208;129342;198700;524031;524031;-0.020;-0.995;0.270;59.0;0.0;0;0.0
12:57:27.239330;148;164737;125156;129309;198496;524031;524031;-0.020;-0.996;0.271;59.0;0.0;0;0.0
12:57:27.249382;149;164514;125120;129287;198351;524031;524031;-0.020;-0.998;0.269;59.0;0.0;0;0.0
12:57:27.259483;150;164372;125111;129277;198265;524031;524031;-0.020;-0.997;0.271;59.0;0.0;0;0.0
12:57:27.259483;151;164250;125102;129280;198198;524031;524031;-0.018;-0.997;0.273;59.0;0.0;0;0.0
12:57:27.269207;152;164151;125090;129253;198153;524031;524031;-0.018;-0.996;0.270;59.0;0.0;0;0.0
12:57:27.439223;153;164082;125090;129248;198137;524031;524031;-0.020;-0.997;0.273;59.0;0.0;0;0.0
12:57:27.449513;154;164034;125074;129234;198117;524031;524031;-0.020;-0.997;0.271;59.0;0.0;0;0.0
12:57:27.459578;155;163984;125063;129228;198093;524031;524031;-0.020;-0.996;0.268;59.0;0.0;0;0.0
12:57:27.464585;156;163962;125073;129219;198095;524031;524031;-0.020;-0.996;0.268;59.0;0.0;0;0.0
12:57:27.469624;157;163980;125082;129212;198136;524031;524031;-0.021;-0.997;0.271;59.0;0.0;0;0.0
12:57:27.639404;158;164018;125092;129216;198190;524031;524031;-0.020;-0.996;0.267;59.0;0.0;0;0.0
12:57:27.649388;159;164086;125104;129221;198270;524031;524031;-0.021;-0.997;0.272;59.0;0.0;0;0.0
12:57:27.659465;160;164146;125115;129222;198338;524031;524031;-0.020;-0.997;0.271;59.0;0.0;0;0.0
12:57:27.659465;161;164225;125129;129226;198423;524031;524031;-0.021;-0.997;0.271;59.0;0.0;0;0.0
12:57:27.669715;162;164301;125141;129227;198502;524031;524031;-0.020;-0.997;0.270;59.0;1040.0;100;0.0
12:57:27.839408;163;164386;125149;129230;198600;524031;524031;-0.020;-0.997;0.271;59.0;0.0;0;0.0
12:57:27.849412;164;164480;125164;129221;198702;524031;524031;-0.020;-0.997;0.271;59.0;0.0;0;0.0
12:57:27.859565;165;164585;125183;129244;198819;524031;524031;-0.020;-0.997;0.269;59.0;0.0;0;0.0
12:57:27.869629;166;164697;125206;129242;198935;524031;524031;-0.020;-0.997;0.268;59.0;0.0;0;0.0
12:57:27.869629;167;164832;125220;129252;199073;524031;524031;-0.020;-0.997;0.272;59.0;0.0;0;0.0
12:57:28.039741;168;164957;125238;129259;199209;524031;524031;-0.019;-0.995;0.267;59.0;0.0;0;0.0
12:57:28.049313;169;165089;125258;129267;199329;524031;524031;-0.021;-0.998;0.269;59.0;0.0;0;0.0
12:57:28.059404;170;165245;125287;129279;199478;524031;524031;-0.019;-0.998;0.268;59.0;0.0;0;0.0
12:57:28.059404;171;165403;125295;129292;199622;524031;524031;-0.019;-0.998;0.272;59.0;0.0;0;0.0
12:57:28.074448;172;165515;125277;129264;199700;524031;524031;-0.019;-0.998;0.267;59.0;0.0;0;0.0
12:57:28.239331;173;165406;125196;129234;199559;524031;524031;-0.021;-0.997;0.267;59.0;0.0;0;0.0
12:57:28.249372;174;165160;125127;129196;199322;524031;524031;-0.020;-0.996;0.266;59.0;0.0;0;0.0
12:57:28.259715;175;164944;125104;129186;199136;524031;524031;-0.018;-0.997;0.269;59.0;0.0;0;0.0
12:57:28.264725;176;164798;125081;129172;199018;524031;524031;-0.020;-0.998;0.268;59.0;0.0;0;0.0
12:57:28.269286;177;164690;125072;129161;198916;524031;524031;-0.019;-0.998;0.273;59.0;0.0;0;0.0
12:57:28.439262;178;164608;125071;129163;198840;524031;524031;-0.019;-0.996;0.270;59.0;0.0;0;0.0
12:57:28.449535;179;164550;125064;129151;198775;524031;524031;-0.019;-0.997;0.267;59.0;0.0;0;0.0
12:57:28.459298;180;164471;125054;129145;198689;524031;524031;-0.020;-0.997;0.270;59.0;0.0;0;0.0
12:57:28.459298;181;164415;125043;129133;198635;524031;524031;-0.021;-0.997;0.267;59.0;0.0;0;0.0
12:57:28.469580;182;164379;125051;129128;198588;524031;524031;-0.019;-0.997;0.267;59.0;0.0;0;0.0
12:57:28.639550;183;164361;125052;129122;198579;524031;524031;-0.020;-0.996;0.266;59.0;867.4;100;0.0
12:57:28.649712;184;164377;125065;129121;198605;524031;524031;-0.019;-0.997;0.268;59.0;0.0;0;0.0
12:57:28.659242;185;164422;125073;129128;198662;524031;524031;-0.020;-0.997;0.270;59.0;0.0;0;0.0
12:57:28.674342;186;164490;125089;129136;198730;524031;524031;-0.020;-0.997;0.268;59.0;0.0;0;0.0
12:57:28.679471;187;164545;125098;129135;198769;524031;524031;-0.019;-0.996;0.268;59.0;0.0;0;0.0
12:57:28.839285;188;164623;125114;129139;198837;524031;524031;-0.018;-0.996;0.268;59.0;0.0;0;0.0
12:57:28.849373;189;164699;125134;129144;198895;524031;524031;-0.020;-0.997;0.269;59.0;0.0;0;0.0
12:57:28.859492;190;164801;125134;129149;198974;524031;524031;-0.019;-0.997;0.269;59.0;0.0;0;0.0
12:57:28.869227;191;164899;125154;129145;199049;524031;524031;-0.020;-0.998;0.269;59.0;0.0;0;0.0
12:57:28.869227;192;165016;125172;129167;199139;524031;524031;-0.018;-0.996;0.271;59.0;0.0;0;0.0
12:57:29.039472;193;165155;125193;129181;199256;524031;524031;-0.020;-0.997;0.270;59.0;0.0;0;0.0
12:57:29.049495;194;165300;125221;129190;199371;524031;524031;-0.021;-0.997;0.268;59.0;0.0;0;0.0
12:57:29.059421;195;165455;125240;129194;199501;524031;524031;-0.020;-0.998;0.265;59.0;0.0;0;0.0
12:57:29.059421;196;165613;125256;129209;199641;524031;524031;-0.020;-0.996;0.274;59.0;0.0;0;0.0
12:57:29.069327;197;165745;125251;129215;199725;524031;524031;-0.020;-0.998;0.266;59.0;0.0;0;0.0
12:57:29.239676;198;165703;125187;129188;199593;524031;524031;-0.021;-0.996;0.267;59.0;0.0;0;0.0
12:57:29.249618;199;165463;125120;129148;199323;524031;524031;-0.021;-0.995;0.266;59.0;0.0;0;0.0
12:57:29.259193;200;165236;125090;129136;199070;524031;524031;-0.020;-0.997;0.269;59.0;0.0;0;0.0
12:57:29.259193;201;165101;125075;129136;198908;524031;524031;-0.020;-0.998;0.270;59.0;0.0;0;0.0
12:57:29.269260;202;165025;125069;129136;198794;524031;524031;-0.022;-0.997;0.270;59.0;0.0;0;0.0
12:57:29.439206;203;164977;125058;129122;198695;524031;524031;-0.020;-0.997;0.271;59.0;0.0;0;0.0
12:57:29.454549;204;164949;125065;129139;198609;524031;524031;-0.020;-0.997;0.266;59.0;0.0;0;0.0
12:57:29.459618;205;164916;125052;129115;198520;524031;524031;-0.022;-0.997;0.272;59.0;0.0;0;0.0
12:57:29.469696;206;164863;125048;129111;198416;524031;524031;-0.023;-0.996;0.270;64.0;923.1;100;0.0
12:57:29.469696;207;164828;125039;129111;198331;524031;524031;-0.022;-0.997;0.268;64.0;0.0;0;0.0
12:57:29.639621;208;164843;125041;129107;198306;524031;524031;-0.022;-0.997;0.268;64.0;0.0;0;0.0
12:57:29.649213;209;164895;125059;129113;198310;524031;524031;-0.022;-0.996;0.269;64.0;0.0;0;0.0
12:57:29.659484;210;164956;125072;129131;198322;524031;524031;-0.023;-0.997;0.270;64.0;0.0;0;0.0
12:57:29.669553;211;165034;125090;129121;198343;524031;524031;-0.022;-0.997;0.266;64.0;0.0;0;0.0
12:57:29.669553;212;165132;125098;129127;198380;524031;524031;-0.022;-0.997;0.268;64.0;0.0;0;0.0
12:57:29.839272;213;165199;125106;129131;198390;524031;524031;-0.022;-0.997;0.269;64.0;0.0;0;0.0
12:57:29.849382;214;165281;125107;129134;198450;524031;524031;-0.023;-0.996;0.268;64.0;0.0;0;0.0
12:57:29.859414;215;165392;125117;129137;198508;524031;524031;-0.022;-0.998;0.271;64.0;0.0;0;0.0
12:57:29.869458;216;165513;125141;129145;198588;524031;524031;-0.022;-0.997;0.270;64.0;0.0;0;0.0
12:57:29.869458;217;165648;125160;129134;198693;524031;524031;-0.024;-0.997;0.267;64.0;0.0;0;0.0
12:57:30.040777;218;165798;125183;129157;198822;524031;524031;-0.021;-0.996;0.263;64.0;0.0;0;0.0
12:57:30.049299;219;165935;125202;129164;198954;524031;524031;-0.021;-0.998;0.268;64.0;0.0;0;0.0
12:57:30.064610;220;166096;125212;129171;199098;524031;524031;-0.021;-1.000;0.272;64.0;0.0;0;0.0
12:57:30.069671;221;166125;125157;129141;199064;524031;524031;-0.024;-0.995;0.263;64.0;0.0;0;0.0
12:57:30.074678;222;165949;125113;129110;198811;524031;524031;-0.022;-0.996;0.260;64.0;0.0;0;0.0
12:57:30.239256;223;165737;125076;129105;198561;524031;524031;-0.022;-0.998;0.265;64.0;0.0;0;0.0
12:57:30.249205;224;165615;125064;129096;198423;524031;524031;-0.024;-0.996;0.266;64.0;0.0;0;0.0
12:57:30.259257;225;165561;125074;129101;198353;524031;524031;-0.023;-0.998;0.267;64.0;0.0;0;0.0
12:57:30.259257;226;165564;125084;129099;198354;524031;524031;-0.020;-0.997;0.270;64.0;0.0;0;0.0
12:57:30.269318;227;165599;125097;129101;198374;524031;524031;-0.021;-0.998;0.267;64.0;0.0;0;0.0
12:57:30.439277;228;165617;125086;129095;198379;524031;524031;-0.023;-0.998;0.264;64.0;0.0;0;0.0
12:57:30.449606;229;165622;125077;129087;198345;524031;524031;-0.025;-0.999;0.267;64.0;0.0;0;0.0
12:57:30.459191;230;165606;125083;129094;198300;524031;524031;-0.022;-0.997;0.263;64.0;0.0;0;0.0
12:57:30.469261;231;165632;125102;129097;198303;524031;524031;-0.024;-0.996;0.262;64.0;0.0;0;0.0
12:57:30.479665;232;165691;125126;129102;198354;524031;524031;-0.023;-0.997;0.267;64.0;0.0;0;0.0
12:57:30.639501;233;165755;125146;129120;198414;524031;524031;-0.021;-0.997;0.271;64.0;0.0;0;0.0
12:57:30.649533;234;165844;125158;129132;198501;524031;524031;-0.021;-0.997;0.268;64.0;0.0;0;0.0
12:57:30.659503;235;165913;125172;129129;198574;524031;524031;-0.021;-0.997;0.267;64.0;0.0;0;0.0
12:57:30.669264;236;165993;125178;129129;198630;524031;524031;-0.023;-0.996;0.267;63.0;0.0;0;0.0
12:57:30.669264;237;166062;125192;129143;198687;524031;524031;-0.021;-0.997;0.265;63.0;0.0;0;0.0
12:57:30.839313;238;166152;125212;129160;198757;524031;524031;-0.023;-0.997;0.270;63.0;0.0;0;0.0
12:57:30.849440;239;166252;125223;129161;198832;524031;524031;-0.020;-0.996;0.267;63.0;0.0;0;0.0
12:57:30.859486;240;166217;125178;129144;198756;524031;524031;-0.021;-0.998;0.270;63.0;0.0;0;0.0
12:57:30.874266;241;165973;125110;129110;198460;524031;524031;-0.023;-0.996;0.267;63.0;0.0;0;0.0
12:57:30.879298;242;165687;125067;129097;198118;524031;524031;-0.021;-0.996;0.267;63.0;0.0;0;0.0
12:57:31.039296;243;165464;125059;129091;197856;524031;524031;-0.020;-0.997;0.270;63.0;0.0;0;0.0
12:57:31.059501;244;165293;125037;129086;197655;524031;524031;-0.021;-0.997;0.268;63.0;0.0;0;0.0
12:57:31.069380;245;165159;125034;129078;197492;524031;524031;-0.021;-0.996;0.275;63.0;0.0;0;0.0
12:57:31.079266;246;165054;125036;129082;197343;524031;524031;-0.020;-0.997;0.270;63.0;0.0;0;0.0
12:57:31.079266;247;164956;125030;129085;197198;524031;524031;-0.021;-0.998;0.269;63.0;0.0;0;0.0
12:57:31.239570;248;164856;125014;129058;197059;524031;524031;-0.022;-0.996;0.270;63.0;0.0;0;0.0
12:57:31.249161;249;164772;125006;129059;196931;524031;524031;-0.022;-0.997;0.268;63.0;0.0;0;0.0
12:57:31.259473;250;164725;125012;129062;196849;524031;524031;-0.021;-0.997;0.267;63.0;0.0;0;0.0
12:57:31.269543;251;164717;125010;129069;196806;524031;524031;-0.022;-0.996;0.268;63.0;0.0;0;0.0
12:57:31.269543;252;164737;125030;129062;196806;524031;524031;-0.020;-0.997;0.270;63.0;0.0;0;0.0
12:57:31.439480;253;164763;125046;129055;196810;524031;524031;-0.020;-0.996;0.269;63.0;0.0;0;0.0
12:57:31.453913;254;164796;125053;129067;196814;524031;524031;-0.020;-0.997;0.268;63.0;0.0;0;0.0
12:57:31.459167;255;164831;125067;129075;196826;524031;524031;-0.019;-0.996;0.270;63.0;0.0;0;0.0
12:57:31.459167;256;164884;125072;129073;196869;524031;524031;-0.019;-0.997;0.268;63.0;0.0;0;0.0
12:57:31.474555;257;164957;125089;129072;196924;524031;524031;-0.020;-0.996;0.266;63.0;0.0;0;0.0
12:57:31.644259;258;165033;125093;129084;196998;524031;524031;-0.021;-0.997;0.267;63.0;1008.8;25;0.0
12:57:31.649298;259;165123;125115;129080;197091;524031;524031;-0.021;-0.998;0.266;63.0;0.0;0;0.0
12:57:31.659615;260;165241;125125;129082;197213;524031;524031;-0.020;-0.997;0.271;63.0;0.0;0;0.0
12:57:31.669524;261;165302;125101;129066;197253;524031;524031;-0.019;-0.997;0.265;63.0;0.0;0;0.0
12:57:31.674528;262;165107;125021;129034;197016;524031;524031;-0.021;-0.998;0.263;63.0;0.0;0;0.0
12:57:31.839575;263;164747;124952;129004;196641;524031;524031;-0.022;-0.997;0.265;63.0;0.0;0;0.0
12:57:31.849218;264;164414;124912;128996;196303;524031;524031;-0.021;-0.997;0.268;63.0;0.0;0;0.0
12:57:31.859672;265;164143;124899;128978;196026;524031;524031;-0.020;-0.998;0.267;63.0;0.0;0;0.0
12:57:31.869225;266;163913;124874;128972;195783;524031;524031;-0.020;-0.997;0.269;63.0;0.0;0;0.0
12:57:31.869225;267;163713;124857;128972;195573;524031;524031;-0.019;-0.996;0.270;63.0;0.0;0;0.0
12:57:32.039622;268;163568;124853;128955;195397;524031;524031;-0.019;-0.998;0.267;63.0;0.0;0;0.0
12:57:32.059198;269;163405;124845;128938;195224;524031;524031;-0.020;-0.997;0.268;63.0;0.0;0;0.0
12:57:32.069250;270;163275;124835;128935;195087;524031;524031;-0.020;-0.996;0.270;63.0;0.0;0;0.0
12:57:32.079313;271;163158;124830;128927;194957;524031;524031;-0.019;-0.996;0.264;63.0;0.0;0;0.0
12:57:32.079313;272;163083;124825;128926;194879;524031;524031;-0.020;-0.997;0.266;63.0;0.0;0;0.0
12:57:32.239380;273;163055;124841;128937;194841;524031;524031;-0.019;-0.997;0.269;63.0;0.0;0;0.0
12:57:32.249388;274;163061;124843;128925;194854;524031;524031;-0.020;-0.997;0.268;63.0;0.0;0;0.0
12:57:32.259430;275;163092;124856;128923;194885;524031;524031;-0.020;-0.997;0.268;63.0;0.0;0;0.0
12:57:32.269404;276;163123;124859;128927;194919;524031;524031;-0.021;-0.996;0.266;63.0;0.0;0;0.0
12:57:32.274410;277;163161;124873;128930;194966;524031;524031;-0.019;-0.997;0.269;63.0;0.0;0;0.0
12:57:32.439395;278;163221;124887;128932;195026;524031;524031;-0.020;-0.997;0.269;63.0;0.0;0;0.0
12:57:32.459235;279;163288;124888;128933;195124;524031;524031;-0.019;-0.997;0.268;63.0;0.0;0;0.0
12:57:32.469442;280;163373;124900;128943;195226;524031;524031;-0.020;-0.997;0.267;63.0;926.3;50;0.0
12:57:32.474447;281;163467;124925;128947;195331;524031;524031;-0.020;-0.997;0.264;63.0;0.0;0;0.0
12:57:32.474447;282;163587;124948;128960;195467;524031;524031;-0.020;-0.996;0.266;63.0;0.0;0;0.0
12:57:32.649382;283;163687;124962;128964;195592;524031;524031;-0.020;-0.997;0.269;63.0;0.0;0;0.0
12:57:32.649382;284;163810;124980;128974;195737;524031;524031;-0.019;-0.997;0.265;63.0;0.0;0;0.0
12:57:32.664223;285;163940;125000;128986;195885;524031;524031;-0.021;-0.997;0.264;63.0;0.0;0;0.0
12:57:32.669261;286;164077;125018;128999;196043;524031;524031;-0.020;-0.996;0.265;63.0;0.0;0;0.0
12:57:32.679506;287;164221;125039;129004;196218;524031;524031;-0.019;-0.997;0.273;63.0;0.0;0;0.0
12:57:32.849435;288;164320;125027;129000;196315;524031;524031;-0.020;-0.998;0.264;63.0;0.0;0;0.0
12:57:32.849435;289;164185;124947;128964;196158;524031;524031;-0.020;-0.996;0.266;63.0;0.0;0;0.0
12:57:32.859458;290;163856;124878;128936;195856;524031;524031;-0.021;-0.996;0.265;63.0;0.0;0;0.0
12:57:32.874578;291;163540;124850;128923;195602;524031;524031;-0.019;-0.997;0.267;63.0;0.0;0;0.0
12:57:32.884652;292;163308;124836;128910;195424;524031;524031;-0.018;-0.999;0.266;63.0;0.0;0;0.0
12:57:33.049476;293;163111;124808;128898;195279;524031;524031;-0.020;-0.997;0.269;63.0;0.0;0;0.0
12:57:33.059521;294;162946;124806;128892;195142;524031;524031;-0.018;-0.996;0.266;63.0;0.0;0;0.0
12:57:33.069462;295;162822;124806;128895;195047;524031;524031;-0.019;-0.997;0.264;63.0;0.0;0;0.0
12:57:33.069462;296;162710;124784;128884;194962;524031;524031;-0.020;-0.998;0.268;63.0;0.0;0;0.0
12:57:33.079456;297;162611;124774;128876;194873;524031;524031;-0.020;-0.997;0.268;63.0;0.0;0;0.0
12:57:33.249346;298;162541;124774;128870;194823;524031;524031;-0.019;-0.997;0.265;63.0;0.0;0;0.0
12:57:33.249346;299;162483;124789;128878;194786;524031;524031;-0.020;-0.996;0.264;63.0;765.0;100;0.0
12:57:33.259246;300;162493;124794;128880;194815;524031;524031;-0.019;-0.997;0.267;63.0;0.0;0;0.0
12:57:33.269461;301;162525;124813;128882;194864;524031;524031;-0.018;-0.997;0.268;63.0;0.0;0;0.0
12:57:33.269461;302;162593;124809;128885;194936;524031;524031;-0.020;-0.998;0.265;63.0;0.0;0;0.0
12:57:33.449324;303;162651;124834;128889;195011;524031;524031;-0.020;-0.996;0.265;63.0;0.0;0;0.0
12:57:33.449324;304;162732;124841;128896;195102;524031;524031;-0.020;-0.998;0.264;63.0;0.0;0;0.0
12:57:33.464561;305;162813;124854;128892;195216;524031;524031;-0.020;-0.998;0.266;63.0;0.0;0;0.0
12:57:33.474623;306;162904;124872;128905;195321;524031;524031;-0.020;-0.997;0.265;62.0;0.0;0;0.0
12:57:33.479672;307;163015;124890;128918;195463;524031;524031;-0.020;-0.997;0.265;62.0;0.0;0;0.0
12:57:33.649179;308;163134;124905;128925;195605;524031;524031;-0.020;-0.997;0.264;62.0;0.0;0;0.0
12:57:33.649179;309;163269;124936;128934;195773;524031;524031;-0.021;-0.997;0.266;62.0;0.0;0;0.0
12:57:33.659450;310;163417;124943;128958;195933;524031;524031;-0.021;-0.997;0.265;62.0;0.0;0;0.0
12:57:33.669437;311;163570;124968;128954;196111;524031;524031;-0.020;-0.997;0.264;63.0;0.0;0;0.0
12:57:33.669437;312;163725;124993;128971;196274;524031;524031;-0.020;-0.997;0.265;63.0;0.0;0;0.0
12:57:33.849605;313;163903;125022;128999;196470;524031;524031;-0.020;-0.998;0.266;63.0;0.0;0;0.0
12:57:33.849605;314;164086;125037;129003;196668;524031;524031;-0.020;-0.998;0.266;63.0;0.0;0;0.0
12:57:33.864456;315;164185;125010;128988;196748;524031;524031;-0.021;-0.998;0.263;63.0;0.0;0;0.0
12:57:33.879377;316;164055;124942;128962;196610;524031;524031;-0.022;-0.996;0.262;65.0;0.0;0;0.0
12:57:33.879377;317;163797;124897;128947;196393;524031;524031;-0.020;-0.997;0.260;65.0;0.0;0;0.0
12:57:34.049381;318;163586;124883;128939;196256;524031;524031;-0.021;-0.998;0.267;65.0;0.0;0;0.0
12:57:34.049381;319;163455;124873;128936;196188;524031;524031;-0.021;-0.997;0.264;65.0;0.0;0;0.0
12:57:34.064442;320;163385;124872;128937;196153;524031;524031;-0.020;-0.997;0.267;65.0;0.0;0;0.0
12:57:34.069488;321;163323;124880;128949;196132;524031;524031;-0.019;-0.997;0.266;66.0;0.0;0;0.0
12:57:34.079539;322;163273;124877;128947;196111;524031;524031;-0.021;-0.998;0.266;66.0;876.2;100;0.0
12:57:34.249617;323;163233;124871;128942;196098;524031;524031;-0.021;-0.997;0.268;66.0;0.0;0;0.0
12:57:34.259312;324;163182;124868;128937;196064;524031;524031;-0.020;-0.997;0.266;66.0;0.0;0;0.0
12:57:34.269262;325;163155;124872;128947;196058;524031;524031;-0.020;-0.997;0.264;66.0;0.0;0;0.0
12:57:34.269262;326;163161;124895;128959;196076;524031;524031;-0.021;-0.996;0.265;68.0;0.0;0;0.0
12:57:34.269262;327;163228;124916;128969;196158;524031;524031;-0.020;-0.997;0.268;68.0;0.0;0;0.0
12:57:34.449499;328;163291;124927;128965;196238;524031;524031;-0.020;-0.997;0.265;68.0;0.0;0;0.0
12:57:34.449499;329;163379;124949;128980;196340;524031;524031;-0.021;-0.998;0.266;68.0;0.0;0;0.0
12:57:34.464213;330;163466;124959;128996;196433;524031;524031;-0.021;-0.997;0.265;68.0;0.0;0;0.0
12:57:34.469279;331;163559;124970;129004;196542;524031;524031;-0.020;-0.997;0.267;69.0;0.0;0;0.0
12:57:34.479301;332;163663;124994;129012;196652;524031;524031;-0.020;-0.997;0.268;69.0;0.0;0;0.0
12:57:34.649175;333;163776;125016;129026;196777;524031;524031;-0.020;-0.997;0.265;69.0;0.0;0;0.0
12:57:34.654182;334;163907;125030;129035;196929;524031;524031;-0.020;-0.997;0.266;69.0;0.0;0;0.0
12:57:34.659224;335;164058;125055;129048;197071;524031;524031;-0.021;-0.997;0.263;69.0;0.0;0;0.0
12:57:34.669326;336;164206;125080;129071;197235;524031;524031;-0.021;-0.996;0.263;71.0;0.0;0;0.0
12:57:34.679437;337;164373;125108;129080;197413;524031;524031;-0.020;-0.997;0.263;71.0;0.0;0;0.0
12:57:34.849410;338;164525;125123;129091;197589;524031;524031;-0.020;-0.997;0.273;71.0;0.0;0;0.0
12:57:34.854416;339;164706;125138;129097;197762;524031;524031;-0.019;-0.997;0.264;71.0;0.0;0;0.0
12:57:34.864473;340;164726;125078;129076;197746;524031;524031;-0.020;-0.996;0.266;71.0;0.0;0;0.0
12:57:34.869524;341;164538;125014;129049;197591;524031;524031;-0.020;-0.996;0.263;72.0;0.0;0;0.0
12:57:34.869524;342;164315;124989;129040;197442;524031;524031;-0.018;-0.996;0.263;72.0;0.0;0;0.0
12:57:35.049530;343;164163;124982;129032;197357;524031;524031;-0.020;-0.999;0.265;72.0;0.0;0;0.0
12:57:35.059656;344;164084;124984;129039;197346;524031;524031;-0.019;-0.998;0.267;72.0;0.0;0;0.0
12:57:35.069226;345;164038;124988;129034;197336;524031;524031;-0.019;-0.996;0.269;72.0;0.0;0;0.0
12:57:35.074233;346;164039;124992;129048;197377;524031;524031;-0.018;-0.998;0.261;73.0;0.0;0;0.0
12:57:35.079301;347;164033;124991;129042;197397;524031;524031;-0.020;-0.998;0.263;73.0;0.0;0;0.0
12:57:35.249489;348;164009;124992;129041;197411;524031;524031;-0.020;-0.997;0.266;73.0;0.0;0;0.0
12:57:35.259553;349;164007;124982;129038;197421;524031;524031;-0.020;-0.997;0.264;73.0;1070.6;100;0.0
12:57:35.259553;350;164021;124997;129046;197473;524031;524031;-0.020;-0.997;0.263;73.0;0.0;0;0.0
12:57:35.269639;351;164074;125007;129062;197558;524031;524031;-0.020;-0.997;0.267;75.0;0.0;0;0.0
12:57:35.279626;352;164160;125033;129061;197664;524031;524031;-0.020;-0.997;0.266;75.0;0.0;0;0.0
12:57:35.449238;353;164268;125051;129074;197778;524031;524031;-0.020;-0.997;0.266;75.0;0.0;0;0.0
12:57:35.454246;354;164374;125066;129079;197904;524031;524031;-0.019;-0.996;0.264;75.0;0.0;0;0.0
12:57:35.464318;355;164482;125082;129092;198031;524031;524031;-0.020;-0.996;0.265;75.0;0.0;0;0.0
12:57:35.469380;356;164594;125103;129095;198153;524031;524031;-0.019;-0.998;0.266;76.0;0.0;0;0.0
12:57:35.479388;357;164715;125125;129110;198292;524031;524031;-0.020;-0.997;0.267;76.0;0.0;0;0.0
12:57:35.649189;358;164852;125139;129128;198445;524031;524031;-0.019;-0.997;0.264;76.0;0.0;0;0.0
12:57:35.659636;359;165001;125156;129129;198593;524031;524031;-0.019;-0.997;0.267;76.0;0.0;0;0.0
12:57:35.669210;360;165151;125183;129148;198745;524031;524031;-0.019;-0.996;0.265;76.0;0.0;0;0.0
12:57:35.679564;361;165331;125209;129161;198913;524031;524031;-0.020;-0.997;0.264;77.0;0.0;0;0.0
12:57:35.679564;362;165493;125236;129180;199070;524031;524031;-0.019;-0.997;0.263;77.0;0.0;0;0.0
12:57:35.849353;363;165689;125255;129191;199265;524031;524031;-0.020;-0.998;0.268;77.0;0.0;0;0.0
12:57:35.859634;364;165879;125273;129196;199453;524031;524031;-0.019;-0.997;0.265;77.0;0.0;0;0.0
12:57:35.859634;365;165977;125216;129175;199521;524031;524031;-0.019;-0.997;0.260;77.0;0.0;0;0.0
12:57:35.869143;366;165875;125145;129129;199411;524031;524031;-0.021;-0.997;0.266;77.0;0.0;0;0.0
12:57:35.879292;367;165682;125094;129101;199249;524031;524031;-0.018;-0.996;0.265;77.0;0.0;0;0.0
12:57:36.049286;368;165522;125082;129095;199144;524031;524031;-0.017;-0.998;0.262;77.0;0.0;0;0.0
12:57:36.059500;369;165467;125071;129095;199124;524031;524031;-0.020;-0.997;0.270;77.0;0.0;0;0.0
12:57:36.069445;370;165423;125064;129089;199095;524031;524031;-0.018;-0.997;0.271;77.0;0.0;0;0.0
12:57:36.069445;371;165414;125066;129097;199081;524031;524031;-0.018;-0.996;0.263;77.0;0.0;0;0.0
12:57:36.079533;372;165401;125076;129095;199076;524031;524031;-0.019;-0.998;0.266;77.0;0.0;0;0.0
12:57:36.249371;373;165396;125066;129085;199079;524031;524031;-0.020;-0.996;0.267;77.0;0.0;0;0.0
12:57:36.259438;374;165375;125067;129086;199056;524031;524031;-0.019;-0.997;0.266;77.0;0.0;0;0.0
12:57:36.269494;375;165376;125074;129098;199053;524031;524031;-0.020;-0.997;0.263;77.0;0.0;0;0.0
12:57:36.279536;376;165432;125086;129095;199109;524031;524031;-0.020;-0.997;0.266;77.0;1066.0;100;0.0
12:57:36.279536;377;165520;125108;129105;199192;524031;524031;-0.018;-0.996;0.268;77.0;0.0;0;0.0
12:57:36.449395;378;165632;125132;129115;199283;524031;524031;-0.020;-0.997;0.267;77.0;0.0;0;0.0
12:57:36.459467;379;165752;125141;129132;199389;524031;524031;-0.020;-0.997;0.266;77.0;0.0;0;0.0
12:57:36.469305;380;165887;125153;129128;199514;524031;524031;-0.019;-0.997;0.267;77.0;0.0;0;0.0
12:57:36.474310;381;166032;125168;129130;199637;524031;524031;-0.019;-0.996;0.265;76.0;0.0;0;0.0
12:57:36.479358;382;166187;125182;129140;199772;524031;524031;-0.019;-0.997;0.268;76.0;0.0;0;0.0
12:57:36.649328;383;166332;125203;129154;199895;524031;524031;-0.020;-0.998;0.267;76.0;0.0;0;0.0
12:57:36.654338;384;166493;125218;129167;200041;524031;524031;-0.020;-0.997;0.264;76.0;0.0;0;0.0
12:57:36.659386;385;166658;125232;129178;200199;524031;524031;-0.020;-0.996;0.264;76.0;0.0;0;0.0
12:57:36.669502;386;166844;125259;129183;200374;524031;524031;-0.021;-0.997;0.263;76.0;0.0;0;0.0
12:57:36.679352;387;167030;125289;129197;200548;524031;524031;-0.020;-0.996;0.261;76.0;0.0;0;0.0
12:57:36.849176;388;167240;125308;129218;200739;524031;524031;-0.019;-0.997;0.269;76.0;0.0;0;0.0
12:57:36.859243;389;167422;125321;129226;200895;524031;524031;-0.019;-0.997;0.266;76.0;0.0;0;0.0
12:57:36.864251;390;167511;125288;129209;200941;524031;524031;-0.020;-0.996;0.265;76.0;0.0;0;0.0
12:57:36.869310;391;167399;125209;129184;200798;524031;524031;-0.021;-0.997;0.262;76.0;0.0;0;0.0
12:57:36.879460;392;167218;125174;129169;200648;524031;524031;-0.020;-0.998;0.265;76.0;0.0;0;0.0
12:57:37.049225;393;167104;125163;129160;200574;524031;524031;-0.020;-0.999;0.267;76.0;0.0;0;0.0
12:57:37.059566;394;167069;125162;129154;200550;524031;524031;-0.021;-0.997;0.267;76.0;0.0;0;0.0
12:57:37.069646;395;167070;125170;129162;200554;524031;524031;-0.020;-0.996;0.270;76.0;0.0;0;0.0
12:57:37.079160;396;167088;125171;129170;200569;524031;524031;-0.020;-0.997;0.264;76.0;0.0;0;0.0
12:57:37.079160;397;167124;125177;129166;200595;524031;524031;-0.021;-0.999;0.265;76.0;0.0;0;0.0
12:57:37.249543;398;167143;125171;129165;200597;524031;524031;-0.024;-0.997;0.264;76.0;0.0;0;0.0
12:57:37.259598;399;167159;125162;129168;200587;524031;524031;-0.022;-0.997;0.263;76.0;0.0;0;0.0
12:57:37.269576;400;167195;125161;129178;200607;524031;524031;-0.022;-0.997;0.262;76.0;984.1;100;0.0
12:57:37.269576;401;167266;125187;129180;200659;524031;524031;-0.022;-0.997;0.262;75.0;0.0;0;0.0
12:57:37.279133;402;167391;125200;129198;200757;524031;524031;-0.022;-0.998;0.264;75.0;0.0;0;0.0
12:57:37.449364;403;167497;125222;129207;200842;524031;524031;-0.022;-0.998;0.265;75.0;0.0;0;0.0
12:57:37.454373;404;167635;125247;129222;200938;524031;524031;-0.023;-0.997;0.265;75.0;0.0;0;0.0
12:57:37.459422;405;167769;125248;129222;201039;524031;524031;-0.021;-0.997;0.266;75.0;0.0;0;0.0
12:57:37.469244;406;167902;125269;129239;201140;524031;524031;-0.021;-0.997;0.264;75.0;0.0;0;0.0
12:57:37.479392;407;168047;125283;129243;201254;524031;524031;-0.021;-0.997;0.264;75.0;0.0;0;0.0
12:57:37.649141;408;168202;125305;129263;201385;524031;524031;-0.020;-0.997;0.261;75.0;0.0;0;0.0
12:57:37.649141;409;168368;125327;129276;201533;524031;524031;-0.021;-0.998;0.261;75.0;0.0;0;0.0
12:57:37.659589;410;168544;125353;129293;201717;524031;524031;-0.022;-0.999;0.263;75.0;0.0;0;0.0
12:57:37.669489;411;168733;125368;129292;201891;524031;524031;-0.020;-0.999;0.265;75.0;0.0;0;0.0
12:57:37.679166;412;168871;125364;129294;201993;524031;524031;-0.021;-0.997;0.260;75.0;0.0;0;0.0
12:57:37.849359;413;168814;125295;129274;201888;524031;524031;-0.023;-0.997;0.257;75.0;0.0;0;0.0
12:57:37.859361;414;168665;125253;129271;201741;524031;524031;-0.019;-0.998;0.260;75.0;0.0;0;0.0
12:57:37.869629;415;168566;125256;129265;201654;524031;524031;-0.020;-0.998;0.262;75.0;0.0;0;0.0
12:57:37.869629;416;168532;125262;129274;201610;524031;524031;-0.019;-0.998;0.262;74.0;0.0;0;0.0
12:57:37.879468;417;168555;125275;129284;201621;524031;524031;-0.019;-0.997;0.264;74.0;0.0;0;0.0
12:57:38.049371;418;168604;125288;129303;201643;524031;524031;-0.019;-0.998;0.263;74.0;0.0;0;0.0
12:57:38.059295;419;168660;125299;129301;201664;524031;524031;-0.020;-0.998;0.260;74.0;0.0;0;0.0
12:57:38.064301;420;168689;125286;129302;201657;524031;524031;-0.020;-0.997;0.261;74.0;0.0;0;0.0
12:57:38.069374;421;168700;125290;129307;201640;524031;524031;-0.019;-0.997;0.261;74.0;0.0;0;0.0
12:57:38.079531;422;168725;125311;129314;201650;524031;524031;-0.020;-0.998;0.260;74.0;0.0;0;0.0
12:57:38.249262;423;168773;125328;129333;201673;524031;524031;-0.019;-0.997;0.264;74.0;0.0;0;0.0
12:57:38.259330;424;168863;125351;129350;201739;524031;524031;-0.018;-0.997;0.264;74.0;0.0;0;0.0
12:57:38.269443;425;168952;125369;129366;201799;524031;524031;-0.017;-0.998;0.266;74.0;1011.4;100;0.0
12:57:38.279273;426;169046;125384;129373;201858;524031;524031;-0.018;-0.997;0.265;74.0;0.0;0;0.0
12:57:38.289519;427;169145;125391;129387;201924;524031;524031;-0.018;-0.997;0.264;74.0;0.0;0;0.0
12:57:38.449434;428;169245;125414;129407;201970;524031;524031;-0.017;-0.997;0.263;74.0;0.0;0;0.0
12:57:38.459221;429;169365;125432;129421;202056;524031;524031;-0.018;-0.997;0.269;74.0;0.0;0;0.0
12:57:38.459221;430;169482;125436;129423;202106;524031;524031;-0.017;-0.996;0.266;74.0;0.0;0;0.0
12:57:38.469648;431;169518;125416;129406;202058;524031;524031;-0.016;-0.998;0.263;73.0;0.0;0;0.0
12:57:38.479362;432;169359;125348;129382;201823;524031;524031;-0.020;-0.997;0.263;73.0;0.0;0;0.0
12:57:38.649512;433;169126;125289;129364;201556;524031;524031;-0.017;-0.996;0.263;73.0;0.0;0;0.0
12:57:38.659393;434;168951;125285;129360;201344;524031;524031;-0.015;-0.998;0.263;73.0;0.0;0;0.0
12:57:38.669538;435;168837;125286;129359;201197;524031;524031;-0.017;-0.997;0.265;73.0;0.0;0;0.0
12:57:38.679602;436;168773;125280;129352;201090;524031;524031;-0.016;-0.996;0.271;73.0;0.0;0;0.0
12:57:38.679602;437;168743;125277;129364;200985;524031;524031;-0.015;-0.996;0.264;73.0;0.0;0;0.0
12:57:38.849214;438;168692;125274;129356;200876;524031;524031;-0.017;-0.997;0.265;73.0;0.0;0;0.0
12:57:38.859260;439;168652;125267;129344;200768;524031;524031;-0.019;-0.997;0.265;73.0;0.0;0;0.0
12:57:38.859260;440;168626;125244;129341;200669;524031;524031;-0.017;-0.997;0.263;73.0;0.0;0;0.0
12:57:38.869372;441;168616;125261;129347;200609;524031;524031;-0.017;-0.997;0.263;73.0;0.0;0;0.0
12:57:38.879429;442;168649;125266;129340;200587;524031;524031;-0.017;-0.997;0.263;73.0;0.0;0;0.0
12:57:39.049420;443;168700;125285;129365;200611;524031;524031;-0.017;-0.997;0.265;73.0;0.0;0;0.0
12:57:39.049420;444;168757;125296;129355;200612;524031;524031;-0.017;-0.997;0.265;73.0;0.0;0;0.0
12:57:39.059293;445;168854;125306;129360;200660;524031;524031;-0.017;-0.997;0.266;73.0;0.0;0;0.0
12:57:39.069451;446;168934;125322;129370;200689;524031;524031;-0.016;-0.996;0.265;72.0;0.0;0;0.0
12:57:39.079360;447;169017;125320;129373;200718;524031;524031;-0.017;-0.997;0.266;72.0;0.0;0;0.0
12:57:39.249654;448;169112;125341;129384;200758;524031;524031;-0.017;-0.996;0.267;72.0;0.0;0;0.0
12:57:39.259515;449;169222;125355;129391;200828;524031;524031;-0.017;-0.996;0.268;72.0;0.0;0;0.0
12:57:39.269621;450;169347;125372;129397;200901;524031;524031;-0.017;-0.996;0.262;72.0;991.6;100;0.0
12:57:39.279357;451;169461;125400;129416;200976;524031;524031;-0.018;-0.997;0.264;72.0;0.0;0;0.0
12:57:39.279357;452;169599;125416;129424;201064;524031;524031;-0.017;-0.996;0.260;72.0;0.0;0;0.0
12:57:39.449327;453;169755;125428;129428;201184;524031;524031;-0.017;-0.996;0.270;72.0;0.0;0;0.0
12:57:39.459499;454;169857;125421;129425;201228;524031;524031;-0.015;-0.996;0.264;72.0;0.0;0;0.0
12:57:39.469229;455;169756;125359;129394;201049;524031;524031;-0.017;-0.998;0.265;72.0;0.0;0;0.0
12:57:39.469229;456;169479;125278;129361;200720;524031;524031;-0.017;-0.996;0.266;71.0;0.0;0;0.0
12:57:39.479535;457;169194;125236;129333;200405;524031;524031;-0.015;-0.996;0.266;71.0;0.0;0;0.0
12:57:39.649245;458;168982;125216;129332;200162;524031;524031;-0.015;-0.997;0.263;71.0;0.0;0;0.0
12:57:39.659474;459;168811;125195;129322;199952;524031;524031;-0.017;-0.996;0.267;71.0;0.0;0;0.0
12:57:39.669320;460;168669;125180;129310;199753;524031;524031;-0.016;-0.996;0.267;71.0;0.0;0;0.0
12:57:39.674326;461;168555;125170;129305;199583;524031;524031;-0.015;-0.997;0.265;71.0;0.0;0;0.0
12:57:39.679368;462;168447;125152;129293;199421;524031;524031;-0.017;-0.997;0.267;71.0;0.0;0;0.0
12:57:39.849387;463;168359;125143;129284;199267;524031;524031;-0.017;-0.996;0.265;71.0;0.0;0;0.0
12:57:39.859257;464;168286;125134;129279;199128;524031;524031;-0.017;-0.996;0.262;71.0;0.0;0;0.0
12:57:39.859257;465;168232;125138;129278;199024;524031;524031;-0.017;-0.996;0.264;71.0;0.0;0;0.0
12:57:39.869140;466;168214;125140;129277;198959;524031;524031;-0.017;-0.996;0.265;71.0;0.0;0;0.0
12:57:39.879263;467;168211;125149;129282;198915;524031;524031;-0.016;-0.996;0.267;71.0;0.0;0;0.0
12:57:40.049339;468;168241;125155;129279;198910;524031;524031;-0.017;-0.996;0.265;71.0;0.0;0;0.0
12:57:40.059289;469;168268;125158;129281;198898;524031;524031;-0.017;-0.997;0.263;71.0;0.0;0;0.0
12:57:40.059289;470;168303;125165;129277;198881;524031;524031;-0.017;-0.997;0.267;71.0;0.0;0;0.0
12:57:40.069133;471;168355;125176;129279;198882;524031;524031;-0.015;-0.996;0.265;70.0;0.0;0;0.0
12:57:40.079234;472;168423;125178;129280;198897;524031;524031;-0.017;-0.998;0.263;70.0;893.9;100;0.0
12:57:40.249242;473;168504;125199;129289;198946;524031;524031;-0.017;-0.997;0.265;70.0;0.0;0;0.0
12:57:40.264420;474;168607;125210;129291;199016;524031;524031;-0.017;-0.996;0.263;70.0;0.0;0;0.0
12:57:40.274490;475;168695;125224;129306;199065;524031;524031;-0.017;-0.997;0.263;70.0;0.0;0;0.0
12:57:40.279544;476;168805;125249;129302;199142;524031;524031;-0.016;-0.997;0.266;70.0;0.0;0;0.0
12:57:40.279544;477;168929;125244;129308;199229;524031;524031;-0.017;-0.996;0.264;70.0;0.0;0;0.0
12:57:40.449383;478;169054;125260;129305;199316;524031;524031;-0.019;-0.997;0.262;70.0;0.0;0;0.0
12:57:40.459129;479;169184;125271;129308;199428;524031;524031;-0.015;-0.997;0.263;70.0;0.0;0;0.0
12:57:40.469642;480;169327;125283;129311;199552;524031;524031;-0.016;-0.998;0.269;70.0;0.0;0;0.0
12:57:40.479241;481;169447;125278;129297;199624;524031;524031;-0.015;-0.996;0.261;69.0;0.0;0;0.0
12:57:40.479241;482;169384;125216;129265;199490;524031;524031;-0.017;-0.997;0.264;69.0;0.0;0;0.0
12:57:40.649554;483;169116;125134;129228;199176;524031;524031;-0.020;-0.996;0.263;69.0;0.0;0;0.0
12:57:40.659080;484;168830;125099;129213;198868;524031;524031;-0.016;-0.996;0.262;69.0;0.0;0;0.0
12:57:40.669308;485;168597;125066;129199;198614;524031;524031;-0.016;-0.997;0.263;69.0;0.0;0;0.0
12:57:40.679268;486;168433;125047;129187;198415;524031;524031;-0.017;-0.998;0.265;69.0;0.0;0;0.0
12:57:40.684275;487;168291;125036;129178;198237;524031;524031;-0.015;-0.995;0.268;69.0;0.0;0;0.0
12:57:40.854399;488;168159;125028;129171;198050;524031;524031;-0.015;-0.996;0.262;69.0;0.0;0;0.0
12:57:40.859444;489;168058;125014;129165;197891;524031;524031;-0.016;-0.997;0.265;69.0;0.0;0;0.0
12:57:40.869513;490;167955;125000;129158;197744;524031;524031;-0.018;-0.997;0.265;69.0;748.2;100;0.0
12:57:40.869513;491;167863;125002;129141;197604;524031;524031;-0.017;-0.997;0.261;69.0;0.0;0;0.0
12:57:40.879289;492;167805;124995;129150;197503;524031;524031;-0.018;-0.998;0.261;69.0;0.0;0;0.0
12:57:41.049364;493;167798;125010;129148;197446;524031;524031;-0.018;-0.997;0.267;69.0;0.0;0;0.0
12:57:41.059397;494;167820;125020;129163;197421;524031;524031;-0.017;-0.997;0.267;69.0;0.0;0;0.0
12:57:41.064403;495;167868;125032;129167;197398;524031;524031;-0.018;-0.997;0.262;69.0;0.0;0;0.0
12:57:41.069449;496;167907;125035;129167;197376;524031;524031;-0.017;-0.997;0.264;68.0;0.0;0;0.0
12:57:41.079191;497;167958;125051;129177;197376;524031;524031;-0.018;-0.997;0.266;68.0;0.0;0;0.0
12:57:41.249524;498;168020;125069;129181;197382;524031;524031;-0.018;-0.996;0.265;68.0;0.0;0;0.0
12:57:41.259121;499;168100;125076;129198;197412;524031;524031;-0.017;-0.997;0.266;68.0;0.0;0;0.0
12:57:41.269165;500;168185;125099;129198;197464;524031;524031;-0.018;-0.998;0.263;68.0;0.0;0;0.0
12:57:41.274171;501;168302;125112;129206;197555;524031;524031;-0.018;-0.997;0.263;68.0;0.0;0;0.0
12:57:41.279212;502;168437;125122;129207;197656;524031;524031;-0.017;-0.997;0.264;68.0;0.0;0;0.0
12:57:41.454452;503;168560;125148;129220;197748;524031;524031;-0.019;-0.997;0.262;68.0;0.0;0;0.0
12:57:41.459502;504;168710;125165;129227;197865;524031;524031;-0.019;-0.997;0.262;68.0;0.0;0;0.0
12:57:41.469593;505;168850;125186;129244;197968;524031;524031;-0.018;-0.997;0.264;68.0;0.0;0;0.0
12:57:41.479136;506;169009;125188;129252;198099;524031;524031;-0.018;-0.997;0.268;68.0;0.0;0;0.0
12:57:41.489203;507;169094;125174;129235;198121;524031;524031;-0.017;-0.997;0.263;68.0;0.0;0;0.0
12:57:41.654376;508;168954;125095;129210;197905;524031;524031;-0.019;-0.997;0.260;68.0;0.0;0;0.0
12:57:41.664454;509;168701;125055;129199;197624;524031;524031;-0.019;-0.997;0.261;68.0;0.0;0;0.0
12:57:41.669528;510;168501;125027;129184;197420;524031;524031;-0.018;-0.998;0.265;68.0;0.0;0;0.0
12:57:41.679308;511;168394;125023;129173;197296;524031;524031;-0.018;-0.998;0.263;67.0;0.0;0;0.0
12:57:41.679308;512;168345;125019;129174;197225;524031;524031;-0.019;-0.997;0.264;67.0;0.0;0;0.0
12:57:41.854381;513;168327;125024;129176;197198;524031;524031;-0.017;-0.997;0.263;67.0;0.0;0;0.0
12:57:41.864455;514;168333;125020;129163;197187;524031;524031;-0.018;-0.998;0.261;67.0;0.0;0;0.0
12:57:41.874502;515;168319;125004;129160;197164;524031;524031;-0.019;-0.996;0.263;67.0;952.3;100;0.0
12:57:41.884071;516;168271;124998;129157;197107;524031;524031;-0.020;-0.998;0.260;67.0;0.0;0;0.0
12:57:41.889120;517;168256;125004;129171;197097;524031;524031;-0.019;-0.997;0.257;67.0;0.0;0;0.0
12:57:42.049523;518;168275;125018;129169;197126;524031;524031;-0.019;-0.997;0.260;67.0;0.0;0;0.0
12:57:42.059329;519;168353;125037;129188;197202;524031;524031;-0.020;-0.998;0.262;67.0;0.0;0;0.0
12:57:42.059329;520;168436;125068;129192;197283;524031;524031;-0.020;-0.997;0.260;67.0;0.0;0;0.0
12:57:42.069212;521;168531;125079;129211;197383;524031;524031;-0.021;-0.997;0.259;67.0;0.0;0;0.0
12:57:42.079527;522;168629;125094;129210;197481;524031;524031;-0.018;-0.998;0.261;67.0;0.0;0;0.0
12:57:42.249246;523;168724;125108;129213;197584;524031;524031;-0.019;-0.997;0.263;67.0;0.0;0;0.0
12:57:42.259505;524;168841;125121;129225;197697;524031;524031;-0.020;-0.997;0.259;67.0;0.0;0;0.0
12:57:42.264513;525;168939;125149;129250;197792;524031;524031;-0.020;-0.998;0.259;67.0;0.0;0;0.0
12:57:42.279155;526;169052;125172;129261;197937;524031;524031;-0.019;-0.998;0.261;67.0;0.0;0;0.0
12:57:42.279155;527;169176;125195;129270;198101;524031;524031;-0.019;-0.998;0.266;67.0;0.0;0;0.0
12:57:42.449451;528;169252;125188;129271;198179;524031;524031;-0.019;-0.998;0.262;67.0;0.0;0;0.0
12:57:42.459500;529;169140;125133;129251;198036;524031;524031;-0.021;-0.996;0.258;67.0;0.0;0;0.0
12:57:42.459500;530;168868;125091;129246;197777;524031;524031;-0.018;-0.997;0.260;67.0;0.0;0;0.0
12:57:42.479298;531;168647;125076;129250;197588;524031;524031;-0.019;-0.999;0.263;67.0;0.0;0;0.0
12:57:42.479298;532;168511;125072;129249;197487;524031;524031;-0.018;-0.997;0.263;67.0;0.0;0;0.0
12:57:42.659304;533;168408;125070;129237;197397;524031;524031;-0.017;-0.997;0.266;67.0;0.0;0;0.0
12:57:42.659304;534;168353;125087;129239;197353;524031;524031;-0.016;-0.997;0.267;67.0;0.0;0;0.0
12:57:42.669407;535;168307;125082;129248;197296;524031;524031;-0.017;-0.997;0.264;67.0;0.0;0;0.0
12:57:42.679318;536;168248;125065;129243;197224;524031;524031;-0.018;-0.996;0.265;67.0;0.0;0;0.0
12:57:42.689599;537;168184;125069;129239;197156;524031;524031;-0.020;-0.997;0.264;67.0;0.0;0;0.0
12:57:42.854555;538;168149;125083;129246;197118;524031;524031;-0.019;-0.997;0.265;67.0;0.0;0;0.0
12:57:42.859613;539;168160;125097;129252;197124;524031;524031;-0.019;-0.997;0.265;67.0;0.0;0;0.0
12:57:42.869434;540;168213;125105;129256;197167;524031;524031;-0.018;-0.996;0.266;67.0;0.0;0;0.0
12:57:42.869434;541;168287;125118;129261;197228;524031;524031;-0.018;-0.998;0.264;67.0;0.0;0;0.0
12:57:42.879120;542;168365;125130;129272;197287;524031;524031;-0.019;-0.997;0.266;67.0;1084.6;100;0.0
12:57:43.054490;543;168457;125136;129271;197365;524031;524031;-0.017;-0.996;0.265;67.0;0.0;0;0.0
12:57:43.059557;544;168547;125161;129280;197422;524031;524031;-0.018;-0.997;0.262;67.0;0.0;0;0.0
12:57:43.069635;545;168643;125175;129293;197498;524031;524031;-0.017;-0.997;0.264;67.0;0.0;0;0.0
12:57:43.079455;546;168757;125187;129296;197608;524031;524031;-0.017;-0.997;0.268;67.0;0.0;0;0.0
12:57:43.079455;547;168864;125192;129285;197702;524031;524031;-0.017;-0.997;0.263;67.0;0.0;0;0.0
12:57:43.249177;548;168842;125147;129277;197650;524031;524031;-0.018;-0.998;0.261;67.0;0.0;0;98.4
12:57:43.259331;549;168579;125071;129239;197372;524031;524031;-0.019;-0.997;0.262;67.0;0.0;0;98.4
12:57:43.269355;550;168293;125035;129224;197100;524031;524031;-0.016;-0.996;0.261;67.0;0.0;0;98.4
12:57:43.274360;551;168056;125031;129215;196885;524031;524031;-0.016;-0.998;0.264;67.0;0.0;0;98.4
12:57:43.284384;552;167890;125012;129210;196751;524031;524031;-0.018;-0.997;0.263;67.0;0.0;0;98.4
12:57:43.449114;553;167762;125005;129215;196632;524031;524031;-0.016;-0.997;0.267;67.0;0.0;0;98.4
12:57:43.459175;554;167661;125003;129198;196535;524031;524031;-0.017;-0.998;0.262;67.0;0.0;0;98.4
12:57:43.469214;555;167586;124999;129201;196461;524031;524031;-0.017;-0.997;0.264;67.0;0.0;0;98.4
12:57:43.469214;556;167506;124986;129180;196372;524031;524031;-0.017;-0.996;0.265;67.0;0.0;0;98.4
12:57:43.479236;557;167437;124992;129188;196303;524031;524031;-0.017;-0.998;0.264;67.0;0.0;0;98.4
12:57:43.654446;558;167395;124994;129190;196261;524031;524031;-0.018;-0.997;0.261;67.0;0.0;0;98.4
12:57:43.659487;559;167406;125009;129201;196270;524031;524031;-0.017;-0.996;0.262;67.0;0.0;0;98.4
12:57:43.669364;560;167435;125026;129194;196289;524031;524031;-0.018;-0.997;0.265;67.0;0.0;0;98.4
12:57:43.669364;561;167488;125034;129208;196329;524031;524031;-0.017;-0.997;0.264;67.0;0.0;0;98.4
12:57:43.679168;562;167543;125042;129212;196376;524031;524031;-0.017;-0.997;0.264;67.0;0.0;0;98.4
12:57:43.849343;563;167609;125054;129219;196426;524031;524031;-0.016;-0.996;0.264;67.0;0.0;0;98.4
12:57:43.859378;564;167677;125077;129220;196486;524031;524031;-0.015;-0.997;0.265;67.0;0.0;0;98.4
12:57:43.869365;565;167774;125084;129229;196571;524031;524031;-0.018;-0.997;0.263;67.0;0.0;0;98.4
12:57:43.869365;566;167869;125098;129230;196664;524031;524031;-0.017;-0.996;0.266;67.0;0.0;0;98.4
12:57:43.879441;567;167991;125118;129248;196790;524031;524031;-0.017;-0.997;0.263;67.0;1010.8;100;98.4
12:57:44.054195;568;168126;125143;129257;196917;524031;524031;-0.017;-0.996;0.263;67.0;0.0;0;98.4
12:57:44.059259;569;168272;125163;129267;197062;524031;524031;-0.017;-0.996;0.263;67.0;0.0;0;98.4
12:57:44.069398;570;168407;125180;129272;197195;524031;524031;-0.016;-0.996;0.263;67.0;0.0;0;98.4
12:57:44.079279;571;168548;125197;129286;197337;524031;524031;-0.017;-0.997;0.263;67.0;0.0;0;98.4
12:57:44.079279;572;168695;125237;129307;197496;524031;524031;-0.017;-0.997;0.264;67.0;0.0;0;98.4
12:57:44.254567;573;168859;125245;129313;197670;524031;524031;-0.017;-0.997;0.266;67.0;0.0;0;98.4
12:57:44.259108;574;169016;125259;129326;197842;524031;524031;-0.016;-0.997;0.264;67.0;0.0;0;98.4
12:57:44.269381;575;169075;125226;129293;197871;524031;524031;-0.016;-0.998;0.261;67.0;0.0;0;98.4
12:57:44.274389;576;168891;125148;129265;197681;524031;524031;-0.019;-0.998;0.263;67.0;0.0;0;98.4
12:57:44.279425;577;168613;125096;129246;197448;524031;524031;-0.017;-0.997;0.261;67.0;0.0;0;98.4
12:57:44.454358;578;168379;125080;129245;197268;524031;524031;-0.017;-0.998;0.264;67.0;0.0;0;98.4
12:57:44.464412;579;168225;125082;129241;197165;524031;524031;-0.017;-0.997;0.263;67.0;0.0;0;98.4
12:57:44.469607;580;168106;125068;129230;197080;524031;524031;-0.015;-0.997;0.265;67.0;0.0;0;98.4
12:57:44.474612;581;168012;125070;129230;197005;524031;524031;-0.016;-0.996;0.262;67.0;0.0;0;98.4
12:57:44.479134;582;167927;125056;129236;196936;524031;524031;-0.016;-0.998;0.262;67.0;0.0;0;98.4
12:57:44.649398;583;167849;125055;129218;196882;524031;524031;-0.017;-0.997;0.266;67.0;0.0;0;98.4
12:57:44.659072;584;167767;125051;129222;196799;524031;524031;-0.017;-0.997;0.260;67.0;0.0;0;98.4
12:57:44.669293;585;167708;125061;129217;196764;524031;524031;-0.018;-0.997;0.261;67.0;0.0;0;98.4
12:57:44.679076;586;167699;125077;129221;196781;524031;524031;-0.017;-0.998;0.263;67.0;0.0;0;98.4
12:57:44.679076;587;167724;125080;129231;196816;524031;524031;-0.016;-0.997;0.265;67.0;0.0;0;98.4
12:57:44.849421;588;167776;125097;129226;196888;524031;524031;-0.017;-0.997;0.261;67.0;846.1;100;98.4
12:57:44.864489;589;167836;125103;129244;196964;524031;524031;-0.018;-0.997;0.260;67.0;0.0;0;98.4
12:57:44.869558;590;167893;125117;129238;197025;524031;524031;-0.015;-0.997;0.264;67.0;0.0;0;98.4
12:57:44.879314;591;167964;125130;129249;197115;524031;524031;-0.016;-0.996;0.263;67.0;0.0;0;98.4
12:57:44.879314;592;168057;125141;129257;197211;524031;524031;-0.016;-0.997;0.261;67.0;0.0;0;98.4
12:57:45.054416;593;168157;125166;129261;197324;524031;524031;-0.017;-0.997;0.262;67.0;0.0;0;98.4
12:57:45.059469;594;168275;125172;129270;197441;524031;524031;-0.017;-0.998;0.264;67.0;0.0;0;98.4
12:57:45.069547;595;168389;125190;129291;197554;524031;524031;-0.017;-0.997;0.264;67.0;0.0;0;98.4
12:57:45.069547;596;168531;125215;129297;197705;524031;524031;-0.016;-0.997;0.262;67.0;0.0;0;98.4
12:57:45.079217;597;168684;125230;129300;197859;524031;524031;-0.016;-0.997;0.262;67.0;0.0;0;98.4
12:57:45.249534;598;168814;125258;129318;198005;524031;524031;-0.017;-0.997;0.263;67.0;0.0;0;98.4
12:57:45.259013;599;168960;125290;129324;198159;524031;524031;-0.016;-0.997;0.266;67.0;0.0;0;98.4
12:57:45.269210;600;169120;125303;129330;198320;524031;524031;-0.016;-0.996;0.263;67.0;0.0;0;98.4
12:57:45.269210;601;169191;125272;129330;198363;524031;524031;-0.016;-0.997;0.259;67.0;0.0;0;98.4
12:57:45.279083;602;169060;125199;129295;198206;524031;524031;-0.017;-0.996;0.263;67.0;0.0;0;98.4
12:57:45.449301;603;168802;125159;129276;197971;524031;524031;-0.016;-0.996;0.263;67.0;0.0;0;98.4
12:57:45.464262;604;168604;125145;129271;197803;524031;524031;-0.016;-0.997;0.265;67.0;0.0;0;98.4
12:57:45.469331;605;168474;125139;129264;197708;524031;524031;-0.017;-0.998;0.263;67.0;0.0;0;98.4
12:57:45.479055;606;168375;125129;129269;197639;524031;524031;-0.015;-0.997;0.268;67.0;0.0;0;98.4
12:57:45.489137;607;168314;125135;129272;197610;524031;524031;-0.015;-0.995;0.261;67.0;788.5;100;98.4
12:57:45.654187;608;168257;125143;129283;197562;524031;524031;-0.016;-0.998;0.264;67.0;0.0;0;98.4
12:57:45.659226;609;168198;125136;129264;197522;524031;524031;-0.017;-0.996;0.265;67.0;0.0;0;98.4
12:57:45.669373;610;168141;125126;129259;197470;524031;524031;-0.017;-0.996;0.263;67.0;0.0;0;98.4
12:57:45.669373;611;168119;125127;129262;197460;524031;524031;-0.018;-0.998;0.262;67.0;0.0;0;98.4
12:57:45.679331;612;168130;125146;129267;197483;524031;524031;-0.017;-0.996;0.262;67.0;0.0;0;98.4
12:57:45.859330;613;168181;125160;129268;197547;524031;524031;-0.017;-0.997;0.262;67.0;0.0;0;98.4
12:57:45.864336;614;168246;125185;129288;197620;524031;524031;-0.016;-0.997;0.262;67.0;0.0;0;98.4
12:57:45.869400;615;168320;125195;129292;197691;524031;524031;-0.017;-0.997;0.261;67.0;0.0;0;98.4
12:57:45.879537;616;168391;125207;129297;197764;524031;524031;-0.016;-0.997;0.261;67.0;0.0;0;98.4
12:57:45.879537;617;168475;125218;129302;197855;524031;524031;-0.016;-0.997;0.264;67.0;0.0;0;98.4
12:57:46.054335;618;168564;125247;129319;197946;524031;524031;-0.017;-0.997;0.263;67.0;0.0;0;98.4
12:57:46.064407;619;168669;125250;129326;198047;524031;524031;-0.017;-0.997;0.262;67.0;0.0;0;98.4
12:57:46.074467;620;168792;125273;129332;198171;524031;524031;-0.018;-0.997;0.259;67.0;0.0;0;98.4
12:57:46.079498;621;168928;125294;129346;198305;524031;524031;-0.017;-0.998;0.261;67.0;0.0;0;98.4
12:57:46.084503;622;169083;125313;129358;198451;524031;524031;-0.016;-0.996;0.262;67.0;0.0;0;98.4
12:57:46.259821;623;169231;125338;129369;198597;524031;524031;-0.018;-0.997;0.261;67.0;0.0;0;98.4
12:57:46.269217;624;169381;125368;129382;198745;524031;524031;-0.017;-0.997;0.260;67.0;0.0;0;98.4
12:57:46.269217;625;169543;125380;129391;198914;524031;524031;-0.017;-0.998;0.265;67.0;0.0;0;98.4
12:57:46.279389;626;169711;125386;129396;199069;524031;524031;-0.016;-0.997;0.264;67.0;0.0;0;98.4
12:57:46.279389;627;169786;125370;129384;199104;524031;524031;-0.017;-0.998;0.262;67.0;0.0;0;98.4
12:57:46.454169;628;169645;125300;129353;198946;524031;524031;-0.018;-0.996;0.262;67.0;0.0;0;98.4
12:57:46.459204;629;169445;125263;129338;198760;524031;524031;-0.016;-0.997;0.261;67.0;0.0;0;98.4
12:57:46.469276;630;169295;125225;129313;198656;524031;524031;-0.018;-0.999;0.265;67.0;0.0;0;98.4
12:57:46.469276;631;169247;125170;129252;198633;524031;524031;-0.017;-0.997;0.264;66.0;0.0;0;98.4
12:57:46.479267;632;169232;125152;129232;198619;524031;524031;-0.016;-0.996;0.266;66.0;0.0;0;98.4
12:57:46.654313;633;169231;125167;129244;198606;524031;524031;-0.016;-0.997;0.259;66.0;0.0;0;98.4
12:57:46.664561;634;169218;125185;129266;198563;524031;524031;-0.017;-0.997;0.262;66.0;0.0;0;98.4
12:57:46.679350;635;169188;125201;129287;198523;524031;524031;-0.018;-0.997;0.264;66.0;0.0;0;98.4
12:57:46.684356;636;169144;125215;129293;198471;524031;524031;-0.017;-0.997;0.263;66.0;1082.5;100;98.4
12:57:46.689394;637;169140;125229;129307;198477;524031;524031;-0.018;-0.998;0.258;66.0;0.0;0;98.4
12:57:46.854405;638;169166;125255;129326;198512;524031;524031;-0.017;-0.997;0.262;66.0;0.0;0;98.4
12:57:46.864500;639;169213;125289;129341;198572;524031;524031;-0.017;-0.998;0.264;66.0;0.0;0;98.4
12:57:46.869583;640;169275;125298;129353;198641;524031;524031;-0.019;-0.997;0.263;66.0;0.0;0;98.4
12:57:46.879112;641;169349;125322;129369;198722;524031;524031;-0.017;-0.997;0.261;66.0;0.0;0;98.4
12:57:46.879112;642;169417;125337;129375;198788;524031;524031;-0.017;-0.997;0.263;66.0;0.0;0;98.4
12:57:47.054286;643;169502;125354;129377;198872;524031;524031;-0.017;-0.997;0.264;66.0;0.0;0;98.4
12:57:47.064345;644;169593;125363;129392;198957;524031;524031;-0.017;-0.997;0.263;66.0;0.0;0;98.4
12:57:47.074415;645;169698;125389;129401;199062;524031;524031;-0.017;-0.997;0.265;66.0;0.0;0;98.4
12:57:47.079450;646;169805;125418;129414;199162;524031;524031;-0.017;-0.997;0.265;66.0;0.0;0;98.4
12:57:47.079450;647;169915;125426;129425;199273;524031;524031;-0.019;-0.996;0.263;66.0;0.0;0;98.4
12:57:47.249141;648;170048;125449;129441;199402;524031;524031;-0.018;-0.997;0.263;66.0;0.0;0;98.4
12:57:47.263275;649;170175;125472;129446;199530;524031;524031;-0.016;-0.997;0.263;66.0;0.0;0;98.4
12:57:47.269290;650;170327;125489;129458;199674;524031;524031;-0.017;-0.998;0.262;66.0;0.0;0;98.4
12:57:47.269290;651;170385;125461;129439;199689;524031;524031;-0.017;-0.998;0.262;66.0;0.0;0;98.4
12:57:47.279224;652;170272;125391;129414;199527;524031;524031;-0.018;-0.997;0.264;66.0;0.0;0;98.4
12:57:47.449180;653;170051;125343;129393;199295;524031;524031;-0.016;-0.996;0.262;66.0;0.0;0;98.4
12:57:47.459294;654;169892;125345;129387;199156;524031;524031;-0.017;-0.999;0.264;66.0;0.0;0;98.4
12:57:47.469201;655;169797;125345;129395;199084;524031;524031;-0.018;-0.997;0.264;66.0;0.0;0;98.4
12:57:47.479406;656;169750;125349;129389;199054;524031;524031;-0.016;-0.996;0.267;66.0;0.0;0;98.4
12:57:47.479406;657;169719;125357;129392;199024;524031;524031;-0.017;-0.997;0.259;66.0;0.0;0;98.4
12:57:47.659200;658;169718;125357;129392;199018;524031;524031;-0.018;-0.998;0.261;66.0;0.0;0;98.4
12:57:47.669268;659;169688;125355;129379;198985;524031;524031;-0.017;-0.996;0.266;66.0;0.0;0;98.4
12:57:47.679348;660;169656;125347;129383;198954;524031;524031;-0.018;-0.997;0.263;66.0;0.0;0;98.4
12:57:47.679348;661;169647;125359;129381;198949;524031;524031;-0.018;-0.997;0.260;66.0;1044.6;100;98.4
12:57:47.679348;662;169676;125372;129390;198982;524031;524031;-0.017;-0.997;0.264;66.0;0.0;0;98.4
12:57:47.849307;663;169738;125384;129389;199051;524031;524031;-0.017;-0.997;0.263;66.0;0.0;0;98.4
12:57:47.864362;664;169808;125403;129407;199128;524031;524031;-0.018;-0.998;0.264;66.0;0.0;0;98.4
12:57:47.874427;665;169890;125420;129408;199188;524031;524031;-0.017;-0.997;0.262;66.0;0.0;0;98.4
12:57:47.879471;666;169978;125422;129410;199259;524031;524031;-0.018;-0.997;0.263;66.0;0.0;0;98.4
12:57:47.884477;667;170074;125442;129420;199329;524031;524031;-0.017;-0.997;0.264;66.0;0.0;0;98.4
12:57:48.049272;668;170177;125455;129434;199415;524031;524031;-0.016;-0.997;0.262;66.0;0.0;0;98.4
12:57:48.059250;669;170279;125478;129440;199509;524031;524031;-0.017;-0.997;0.262;66.0;0.0;0;98.4
12:57:48.069320;670;170405;125499;129445;199629;524031;524031;-0.017;-0.997;0.261;66.0;0.0;0;98.4
12:57:48.079339;671;170536;125514;129461;199752;524031;524031;-0.017;-0.997;0.260;66.0;0.0;0;98.4
12:57:48.079339;672;170674;125529;129470;199876;524031;524031;-0.018;-0.998;0.260;66.0;0.0;0;98.4
12:57:48.259058;673;170809;125562;129481;200011;524031;524031;-0.016;-0.996;0.261;66.0;0.0;0;98.4
12:57:48.264066;674;170963;125570;129487;200162;524031;524031;-0.016;-0.998;0.264;66.0;0.0;0;98.4
12:57:48.269117;675;171110;125586;129479;200285;524031;524031;-0.016;-0.998;0.258;66.0;0.0;0;98.4
12:57:48.279438;676;171139;125534;129463;200263;524031;524031;-0.017;-0.997;0.261;66.0;0.0;0;98.4
12:57:48.279438;677;170976;125467;129438;200052;524031;524031;-0.018;-0.996;0.262;66.0;0.0;0;98.4
12:57:48.449226;678;170756;125435;129423;199835;524031;524031;-0.016;-0.997;0.260;66.0;0.0;0;98.4
12:57:48.459062;679;170598;125423;129422;199692;524031;524031;-0.018;-0.998;0.260;66.0;0.0;0;98.4
12:57:48.469334;680;170506;125436;129428;199622;524031;524031;-0.016;-0.997;0.265;66.0;0.0;0;98.4
12:57:48.479373;681;170443;125427;129419;199580;524031;524031;-0.015;-0.996;0.266;66.0;0.0;0;98.4
12:57:48.479373;682;170387;125426;129407;199535;524031;524031;-0.017;-0.997;0.259;66.0;0.0;0;98.4
12:57:48.659094;683;170349;125425;129407;199497;524031;524031;-0.017;-0.998;0.263;66.0;0.0;0;98.4
12:57:48.664101;684;170301;125411;129399;199458;524031;524031;-0.017;-0.996;0.262;66.0;0.0;0;98.4
12:57:48.674166;685;170236;125409;129389;199398;524031;524031;-0.017;-0.998;0.260;66.0;0.0;0;98.4
12:57:48.679213;686;170206;125419;129389;199389;524031;524031;-0.017;-0.997;0.260;66.0;0.0;0;98.4
12:57:48.689305;687;170221;125413;129385;199424;524031;524031;-0.017;-0.997;0.263;66.0;0.0;0;98.4
12:57:48.859513;688;170246;125427;129383;199472;524031;524031;-0.017;-0.997;0.263;66.0;1028.0;100;98.4
12:57:48.864021;689;170304;125437;129379;199534;524031;524031;-0.017;-0.997;0.263;66.0;0.0;0;98.4
12:57:48.874085;690;170369;125447;129387;199591;524031;524031;-0.016;-0.997;0.261;66.0;0.0;0;98.4
12:57:48.879125;691;170427;125458;129383;199650;524031;524031;-0.018;-0.997;0.264;66.0;0.0;0;98.4
12:57:48.879125;692;170501;125472;129390;199723;524031;524031;-0.017;-0.997;0.262;66.0;0.0;0;98.4
12:57:49.049291;693;170569;125475;129390;199788;524031;524031;-0.016;-0.998;0.262;66.0;0.0;0;98.4
12:57:49.064068;694;170649;125491;129399;199879;524031;524031;-0.017;-0.998;0.262;66.0;0.0;0;98.4
12:57:49.069126;695;170752;125510;129405;199983;524031;524031;-0.017;-0.997;0.262;66.0;0.0;0;98.4
12:57:49.079318;696;170845;125514;129407;200082;524031;524031;-0.016;-0.997;0.264;66.0;0.0;0;98.4
12:57:49.089130;697;170962;125525;129404;200207;524031;524031;-0.017;-0.997;0.260;66.0;0.0;0;98.4
12:57:49.259450;698;171070;125541;129413;200327;524031;524031;-0.017;-0.998;0.261;66.0;0.0;0;98.4
12:57:49.259450;699;171190;125566;129416;200453;524031;524031;-0.017;-0.998;0.261;66.0;0.0;0;98.4
12:57:49.269430;700;171324;125578;129425;200580;524031;524031;-0.016;-0.997;0.262;66.0;0.0;0;98.4
12:57:49.279364;701;171397;125554;129421;200622;524031;524031;-0.017;-0.997;0.260;66.0;0.0;0;98.4
12:57:49.279364;702;171259;125480;129387;200448;524031;524031;-0.017;-0.997;0.262;66.0;0.0;0;98.4
12:57:49.449316;703;171005;125438;129352;200188;524031;524031;-0.016;-0.996;0.260;66.0;0.0;0;98.4
12:57:49.459089;704;170806;125416;129344;200026;524031;524031;-0.016;-0.997;0.261;66.0;0.0;0;98.4
12:57:49.469177;705;170670;125408;129344;199915;524031;524031;-0.018;-0.997;0.264;66.0;0.0;0;98.4
12:57:49.479228;706;170588;125401;129341;199842;524031;524031;-0.015;-0.996;0.269;65.0;0.0;0;98.4
12:57:49.479228;707;170511;125415;129340;199774;524031;524031;-0.015;-0.996;0.261;65.0;0.0;0;98.4
12:57:49.649507;708;170456;125408;129342;199715;524031;524031;-0.018;-0.999;0.260;65.0;0.0;0;98.4
12:57:49.659501;709;170401;125396;129322;199654;524031;524031;-0.017;-0.997;0.267;65.0;0.0;0;98.4
12:57:49.674069;710;170321;125390;129315;199563;524031;524031;-0.017;-0.997;0.260;65.0;0.0;0;98.4
12:57:49.679139;711;170248;125395;129320;199499;524031;524031;-0.017;-0.997;0.260;65.0;965.8;100;98.4
12:57:49.689289;712;170230;125401;129328;199485;524031;524031;-0.016;-0.997;0.260;65.0;0.0;0;98.4
12:57:49.849250;713;170234;125411;129326;199493;524031;524031;-0.016;-0.997;0.262;65.0;0.0;0;98.4
12:57:49.859315;714;170268;125430;129331;199517;524031;524031;-0.017;-0.998;0.262;65.0;0.0;0;98.4
12:57:49.874145;715;170316;125437;129342;199545;524031;524031;-0.016;-0.997;0.262;65.0;0.0;0;98.4
12:57:49.879297;716;170370;125453;129343;199575;524031;524031;-0.016;-0.997;0.264;65.0;0.0;0;98.4
12:57:49.889289;717;170438;125462;129336;199632;524031;524031;-0.016;-0.997;0.264;65.0;0.0;0;98.4
12:57:50.049198;718;170481;125472;129349;199671;524031;524031;-0.017;-0.997;0.264;65.0;0.0;0;98.4
12:57:50.059088;719;170548;125485;129351;199728;524031;524031;-0.017;-0.997;0.260;65.0;0.0;0;98.4
12:57:50.069474;720;170645;125502;129362;199816;524031;524031;-0.017;-0.997;0.261;65.0;0.0;0;98.4
12:57:50.079455;721;170746;125523;129367;199908;524031;524031;-0.016;-0.997;0.262;65.0;0.0;0;98.4
12:57:50.079455;722;170844;125542;129373;199999;524031;524031;-0.017;-0.997;0.260;65.0;0.0;0;98.4
12:57:50.249522;723;170947;125553;129384;200099;524031;524031;-0.018;-0.998;0.260;65.0;0.0;0;98.4
12:57:50.259076;724;171075;125578;129394;200225;524031;524031;-0.015;-0.997;0.262;65.0;0.0;0;98.4
12:57:50.269279;725;171208;125588;129400;200367;524031;524031;-0.016;-0.995;0.267;65.0;0.0;0;98.4
12:57:50.279246;726;171329;125596;129399;200461;524031;524031;-0.015;-0.998;0.258;65.0;0.0;0;98.4
12:57:50.279246;727;171308;125531;129367;200397;524031;524031;-0.017;-0.998;0.262;65.0;0.0;0;98.4
12:57:50.449462;728;171080;125475;129332;200145;524031;524031;-0.017;-0.996;0.260;65.0;0.0;0;98.4
12:57:50.459356;729;170847;125444;129321;199923;524031;524031;-0.015;-0.998;0.261;65.0;0.0;0;98.4
12:57:50.469492;730;170681;125438;129322;199781;524031;524031;-0.018;-0.999;0.261;65.0;0.0;0;98.4
12:57:50.479021;731;170570;125432;129309;199692;524031;524031;-0.017;-0.998;0.263;65.0;0.0;0;98.4
12:57:50.479021;732;170506;125425;129314;199629;524031;524031;-0.015;-0.996;0.262;65.0;0.0;0;98.4
12:57:50.649087;733;170441;125429;129312;199556;524031;524031;-0.018;-0.998;0.259;65.0;0.0;0;98.4
12:57:50.664213;734;170380;125428;129302;199492;524031;524031;-0.016;-0.998;0.264;65.0;0.0;0;98.4
12:57:50.669257;735;170302;125413;129294;199420;524031;524031;-0.016;-0.997;0.264;65.0;0.0;0;98.4
12:57:50.679248;736;170225;125407;129284;199330;524031;524031;-0.016;-0.996;0.260;65.0;992.0;100;98.4
12:57:50.679248;737;170190;125415;129285;199295;524031;524031;-0.016;-0.997;0.261;65.0;0.0;0;98.4
12:57:50.859405;738;170193;125430;129295;199309;524031;524031;-0.016;-0.997;0.265;65.0;0.0;0;98.4
12:57:50.869491;739;170204;125432;129300;199333;524031;524031;-0.015;-0.997;0.263;65.0;0.0;0;98.4
12:57:50.879553;740;170254;125464;129300;199384;524031;524031;-0.018;-0.997;0.260;65.0;0.0;0;98.4
12:57:50.889399;741;170297;125453;129302;199435;524031;524031;-0.016;-0.998;0.262;65.0;0.0;0;98.4
12:57:50.889399;742;170355;125477;129312;199490;524031;524031;-0.016;-0.997;0.263;65.0;0.0;0;98.4
12:57:51.049292;743;170404;125491;129320;199533;524031;524031;-0.017;-0.997;0.263;65.0;0.0;0;98.4
12:57:51.064018;744;170472;125500;129317;199591;524031;524031;-0.016;-0.996;0.266;65.0;0.0;0;98.4
12:57:51.074115;745;170539;125522;129325;199665;524031;524031;-0.017;-0.997;0.262;65.0;0.0;0;98.4
12:57:51.084185;746;170636;125539;129331;199761;524031;524031;-0.017;-0.997;0.262;65.0;0.0;0;98.4
12:57:51.089229;747;170734;125553;129344;199850;524031;524031;-0.017;-0.997;0.262;65.0;0.0;0;98.4
12:57:51.259509;748;170835;125571;129356;199967;524031;524031;-0.017;-0.997;0.260;65.0;0.0;0;98.5
12:57:51.274276;749;170953;125602;129371;200089;524031;524031;-0.016;-0.996;0.263;65.0;0.0;0;98.5
12:57:51.279353;750;171076;125617;129379;200214;524031;524031;-0.017;-0.997;0.264;65.0;0.0;0;98.5
12:57:51.284358;751;171179;125619;129377;200302;524031;524031;-0.017;-0.997;0.260;65.0;0.0;0;98.5
12:57:51.289388;752;171162;125562;129358;200250;524031;524031;-0.017;-0.997;0.263;65.0;0.0;0;98.5
12:57:51.289388;753;170941;125503;129322;199994;524031;524031;-0.018;-0.996;0.263;65.0;0.0;0;98.5
12:57:51.669297;754;170683;125466;129311;199756;524031;524031;-0.015;-0.997;0.261;65.0;0.0;0;98.5
12:57:51.679135;755;170501;125458;129308;199615;524031;524031;-0.018;-0.998;0.260;65.0;0.0;0;98.5
12:57:51.689457;756;170377;125462;129304;199533;524031;524031;-0.016;-0.998;0.264;64.0;0.0;0;98.5
12:57:51.699168;757;170297;125464;129307;199464;524031;524031;-0.015;-0.996;0.261;64.0;0.0;0;98.5
12:57:51.699168;758;170235;125471;129300;199400;524031;524031;-0.017;-0.998;0.259;64.0;0.0;0;98.5
12:57:51.699168;759;170179;125455;129297;199343;524031;524031;-0.016;-0.998;0.266;64.0;0.0;0;98.5
12:57:51.709346;760;170085;125448;129286;199243;524031;524031;-0.017;-0.996;0.263;64.0;0.0;0;98.5
12:57:51.714350;761;170009;125436;129285;199152;524031;524031;-0.017;-0.997;0.259;64.0;1013.5;100;98.5
12:57:51.724387;762;169961;125458;129282;199108;524031;524031;-0.017;-0.997;0.261;64.0;0.0;0;98.5
12:57:51.729434;763;169961;125469;129285;199111;524031;524031;-0.015;-0.997;0.265;64.0;0.0;0;98.5
12:57:52.059339;764;169978;125474;129291;199136;524031;524031;-0.017;-0.996;0.263;64.0;0.0;0;98.5
12:57:52.074324;765;170008;125484;129295;199163;524031;524031;-0.017;-0.997;0.263;64.0;0.0;0;98.5
12:57:52.084391;766;170059;125499;129299;199215;524031;524031;-0.016;-0.997;0.263;64.0;0.0;0;98.5
12:57:52.094526;767;170107;125503;129295;199260;524031;524031;-0.016;-0.996;0.264;64.0;0.0;0;98.5
12:57:52.099081;768;170179;125525;129305;199313;524031;524031;-0.017;-0.997;0.262;64.0;0.0;0;98.5
12:57:52.099081;769;170242;125528;129301;199387;524031;524031;-0.016;-0.997;0.264;64.0;0.0;0;98.5
12:57:52.104085;770;170309;125548;129302;199457;524031;524031;-0.016;-0.997;0.261;64.0;0.0;0;98.5
12:57:52.114120;771;170403;125566;129314;199548;524031;524031;-0.016;-0.996;0.261;64.0;0.0;0;98.5
12:57:52.119160;772;170488;125580;129322;199636;524031;524031;-0.017;-0.997;0.261;64.0;0.0;0;98.5
12:57:52.259275;773;170601;125602;129337;199757;524031;524031;-0.018;-0.997;0.260;64.0;0.0;0;98.6
12:57:52.259275;774;170698;125620;129349;199850;524031;524031;-0.016;-0.997;0.261;64.0;0.0;0;98.6
12:57:52.279263;775;170826;125630;129342;199983;524031;524031;-0.016;-0.997;0.266;64.0;0.0;0;98.6
12:57:52.279263;776;170938;125640;129347;200106;524031;524031;-0.016;-0.997;0.265;64.0;0.0;0;98.6
12:57:52.289044;777;170982;125618;129334;200120;524031;524031;-0.016;-0.998;0.263;64.0;0.0;0;98.6
12:57:52.299229;778;170816;125548;129312;199936;524031;524031;-0.016;-0.996;0.263;64.0;0.0;0;98.6
12:57:52.659099;779;170543;125494;129285;199678;524031;524031;-0.015;-0.995;0.261;64.0;0.0;0;98.6
12:57:52.669068;780;170308;125474;129281;199496;524031;524031;-0.016;-0.997;0.264;64.0;0.0;0;98.6
12:57:52.684292;781;170144;125476;129272;199392;524031;524031;-0.016;-0.997;0.262;64.0;0.0;0;98.6
12:57:52.689377;782;170036;125473;129256;199308;524031;524031;-0.016;-0.997;0.266;64.0;0.0;0;98.6
12:57:52.689377;783;169947;125477;129258;199257;524031;524031;-0.017;-0.996;0.259;64.0;0.0;0;98.6
12:57:52.699246;784;169869;125469;129257;199203;524031;524031;-0.017;-0.998;0.263;64.0;0.0;0;98.6
12:57:52.709279;785;169759;125452;129248;199121;524031;524031;-0.017;-0.997;0.264;64.0;0.0;0;98.6
12:57:52.709279;786;169657;125434;129240;199044;524031;524031;-0.017;-0.998;0.260;64.0;0.0;0;98.6
12:57:52.719268;787;169585;125451;129233;198996;524031;524031;-0.016;-0.998;0.260;64.0;1022.9;100;98.6
12:57:52.729263;788;169552;125458;129231;198984;524031;524031;-0.016;-0.997;0.260;64.0;0.0;0;98.6
12:57:53.059152;789;169562;125467;129239;199010;524031;524031;-0.016;-0.997;0.263;64.0;0.0;0;98.6
12:57:53.069248;790;169591;125478;129232;199054;524031;524031;-0.017;-0.997;0.259;64.0;0.0;0;98.6
12:57:53.079309;791;169614;125483;129235;199096;524031;524031;-0.015;-0.997;0.262;63.0;0.0;0;98.6
12:57:53.084316;792;169667;125493;129233;199164;524031;524031;-0.016;-0.996;0.264;63.0;0.0;0;98.6
12:57:53.089359;793;169729;125489;129233;199246;524031;524031;-0.015;-0.997;0.262;63.0;0.0;0;98.6
12:57:53.099032;794;169784;125511;129235;199331;524031;524031;-0.016;-0.998;0.263;63.0;0.0;0;98.6
12:57:53.109050;795;169857;125525;129238;199436;524031;524031;-0.017;-0.998;0.260;63.0;0.0;0;98.6
12:57:53.114058;796;169950;125531;129229;199542;524031;524031;-0.017;-0.997;0.261;63.0;0.0;0;98.6
12:57:53.119083;797;170070;125551;129243;199681;524031;524031;-0.015;-0.996;0.262;63.0;0.0;0;98.6
12:57:53.259451;798;170175;125564;129246;199788;524031;524031;-0.016;-0.996;0.259;63.0;0.0;0;98.6
12:57:53.259451;799;170284;125592;129257;199919;524031;524031;-0.016;-0.997;0.261;63.0;0.0;0;98.6
12:57:53.279022;800;170405;125609;129264;200060;524031;524031;-0.016;-0.997;0.261;63.0;0.0;0;98.6
12:57:53.279022;801;170554;125622;129277;200218;524031;524031;-0.015;-0.997;0.266;63.0;0.0;0;98.6
12:57:53.289017;802;170684;125634;129283;200344;524031;524031;-0.015;-0.997;0.260;63.0;0.0;0;98.6
12:57:53.298976;803;170700;125597;129265;200325;524031;524031;-0.015;-0.997;0.264;63.0;0.0;0;98.6
12:57:53.659048;804;170504;125528;129234;200099;524031;524031;-0.017;-0.994;0.261;63.0;0.0;0;98.6
12:57:53.669051;805;170248;125487;129219;199860;524031;524031;-0.016;-0.997;0.259;63.0;0.0;0;98.6
12:57:53.679154;806;170065;125480;129222;199726;524031;524031;-0.017;-0.999;0.262;63.0;0.0;0;98.6
12:57:53.679154;807;169963;125484;129217;199660;524031;524031;-0.018;-0.997;0.263;63.0;0.0;0;98.6
12:57:53.689387;808;169895;125481;129205;199606;524031;524031;-0.016;-0.996;0.264;63.0;0.0;0;98.6
12:57:53.699008;809;169829;125489;129216;199552;524031;524031;-0.016;-0.997;0.261;63.0;0.0;0;98.6
12:57:53.709024;810;169774;125478;129213;199502;524031;524031;-0.017;-0.997;0.260;63.0;0.0;0;98.6
12:57:53.709024;811;169705;125457;129205;199440;524031;524031;-0.018;-0.997;0.264;62.0;0.0;0;98.6
12:57:53.719223;812;169632;125450;129207;199374;524031;524031;-0.017;-0.997;0.262;62.0;999.4;100;98.6
12:57:53.729128;813;169597;125466;129202;199367;524031;524031;-0.018;-0.996;0.260;62.0;0.0;0;98.6
12:57:54.064311;814;169606;125477;129209;199390;524031;524031;-0.018;-0.996;0.261;62.0;0.0;0;98.6
12:57:54.069360;815;169650;125484;129210;199450;524031;524031;-0.018;-0.998;0.262;62.0;0.0;0;98.6
12:57:54.079120;816;169707;125493;129214;199519;524031;524031;-0.018;-0.997;0.261;62.0;0.0;0;98.6
12:57:54.079120;817;169769;125508;129216;199570;524031;524031;-0.017;-0.997;0.264;62.0;0.0;0;98.6
12:57:54.089158;818;169846;125514;129221;199630;524031;524031;-0.017;-0.997;0.262;62.0;0.0;0;98.6
12:57:54.099156;819;169901;125525;129229;199679;524031;524031;-0.018;-0.997;0.261;62.0;0.0;0;98.6
12:57:54.109197;820;169978;125539;129229;199748;524031;524031;-0.018;-0.997;0.261;62.0;0.0;0;98.6
12:57:54.109197;821;170075;125553;129250;199835;524031;524031;-0.015;-0.998;0.263;62.0;0.0;0;98.6
12:57:54.119023;822;170175;125579;129268;199912;524031;524031;-0.019;-0.998;0.259;62.0;0.0;0;98.6
12:57:54.259330;823;170279;125596;129284;199994;524031;524031;-0.022;-0.997;0.258;62.0;0.0;0;98.7
12:57:54.259330;824;170392;125611;129297;200095;524031;524031;-0.018;-0.996;0.259;62.0;0.0;0;98.7
12:57:54.269455;825;170527;125632;129297;200226;524031;524031;-0.018;-0.998;0.264;62.0;0.0;0;98.7
12:57:54.279369;826;170642;125645;129303;200320;524031;524031;-0.020;-0.998;0.260;62.0;0.0;0;98.7
12:57:54.289177;827;170657;125601;129290;200270;524031;524031;-0.022;-0.996;0.257;62.0;0.0;0;98.7
12:57:54.299161;828;170492;125552;129270;200082;524031;524031;-0.018;-0.997;0.258;62.0;0.0;0;98.7
12:57:54.659064;829;170307;125524;129260;199911;524031;524031;-0.018;-0.998;0.262;62.0;0.0;0;98.7
12:57:54.669279;830;170195;125514;129262;199853;524031;524031;-0.019;-0.997;0.261;62.0;0.0;0;98.7
12:57:54.679450;831;170145;125523;129266;199834;524031;524031;-0.018;-0.998;0.264;62.0;0.0;0;98.7
12:57:54.679450;832;170159;125536;129268;199878;524031;524031;-0.019;-0.997;0.265;62.0;0.0;0;98.7
12:57:54.699484;833;170176;125545;129274;199912;524031;524031;-0.019;-0.998;0.262;62.0;0.0;0;98.7
12:57:54.699484;834;170189;125530;129251;199941;524031;524031;-0.021;-0.997;0.261;62.0;0.0;0;98.7
12:57:54.709318;835;170151;125522;129247;199923;524031;524031;-0.021;-0.998;0.260;62.0;0.0;0;98.7
12:57:54.709318;836;170120;125529;129244;199926;524031;524031;-0.021;-0.996;0.256;62.0;0.0;0;98.7
12:57:54.719254;837;170136;125543;129248;199981;524031;524031;-0.021;-0.997;0.255;62.0;1015.7;100;98.7
12:57:54.730755;838;170199;125554;129253;200088;524031;524031;-0.020;-0.997;0.263;62.0;0.0;0;98.7
12:57:55.064331;839;170277;125574;129269;200211;524031;524031;-0.021;-0.998;0.260;62.0;0.0;0;98.7
12:57:55.069377;840;170364;125587;129260;200319;524031;524031;-0.021;-0.998;0.256;62.0;0.0;0;98.7
12:57:55.079459;841;170447;125597;129263;200419;524031;524031;-0.020;-0.999;0.257;62.0;0.0;0;98.7
12:57:55.079459;842;170537;125601;129271;200513;524031;524031;-0.020;-0.996;0.259;62.0;0.0;0;98.7
12:57:55.089371;843;170612;125622;129280;200595;524031;524031;-0.018;-0.998;0.258;62.0;0.0;0;98.7
12:57:55.099403;844;170717;125640;129289;200715;524031;524031;-0.020;-0.997;0.258;62.0;0.0;0;98.7
12:57:55.109442;845;170843;125658;129291;200872;524031;524031;-0.019;-0.998;0.264;62.0;0.0;0;98.7
12:57:55.109442;846;170951;125664;129293;200992;524031;524031;-0.018;-0.998;0.260;61.0;0.0;0;98.7
12:57:55.119485;847;170927;125617;129275;200931;524031;524031;-0.020;-0.996;0.258;61.0;0.0;0;98.7
12:57:55.259077;848;170732;125573;129256;200716;524031;524031;-0.020;-0.996;0.255;61.0;0.0;0;98.7
12:57:55.269505;849;170501;125551;129248;200528;524031;524031;-0.019;-0.997;0.259;61.0;0.0;0;98.7
12:57:55.274012;850;170347;125540;129237;200437;524031;524031;-0.018;-0.997;0.258;61.0;0.0;0;98.7
12:57:55.279142;851;170244;125549;129234;200387;524031;524031;-0.016;-0.997;0.267;61.0;0.0;0;98.7
12:57:55.289382;852;170172;125552;129234;200350;524031;524031;-0.015;-0.997;0.264;61.0;0.0;0;98.7
12:57:55.299446;853;170110;125553;129239;200313;524031;524031;-0.018;-0.998;0.260;61.0;0.0;0;98.7
12:57:55.669242;854;170045;125537;129227;200262;524031;524031;-0.018;-0.997;0.260;61.0;0.0;0;98.7
12:57:55.669242;855;169964;125536;129218;200197;524031;524031;-0.017;-0.997;0.260;61.0;0.0;0;98.7
12:57:55.679221;856;169891;125530;129222;200143;524031;524031;-0.017;-0.997;0.259;61.0;0.0;0;98.7
12:57:55.689404;857;169860;125539;129225;200129;524031;524031;-0.019;-0.997;0.258;61.0;0.0;0;98.7
12:57:55.689404;858;169861;125547;129231;200162;524031;524031;-0.017;-0.997;0.260;61.0;0.0;0;98.7
12:57:55.704245;859;169895;125563;129227;200205;524031;524031;-0.018;-0.995;0.259;61.0;0.0;0;98.7
12:57:55.709269;860;169937;125570;129227;200246;524031;524031;-0.016;-0.997;0.260;61.0;0.0;0;98.7
12:57:55.719304;861;169976;125575;129228;200296;524031;524031;-0.018;-0.999;0.259;61.0;0.0;0;98.7
12:57:55.719304;862;170030;125585;129230;200329;524031;524031;-0.018;-0.998;0.258;61.0;0.0;0;98.7
12:57:55.729218;863;170089;125604;129237;200392;524031;524031;-0.017;-0.998;0.265;61.0;1027.3;100;98.7
12:57:56.064268;864;170138;125594;129226;200429;524031;524031;-0.016;-0.996;0.258;61.0;0.0;0;98.7
12:57:56.069316;865;170030;125533;129196;200295;524031;524031;-0.015;-0.999;0.260;61.0;0.0;0;98.7
12:57:56.079412;866;169719;125462;129154;199972;524031;524031;-0.018;-0.996;0.261;61.0;0.0;0;98.7
12:57:56.079412;867;169386;125415;129134;199660;524031;524031;-0.016;-0.997;0.259;61.0;0.0;0;98.7
12:57:56.089247;868;169111;125397;129116;199432;524031;524031;-0.014;-0.997;0.258;61.0;0.0;0;98.7
12:57:56.099000;869;168868;125365;129096;199213;524031;524031;-0.017;-0.997;0.260;61.0;0.0;0;98.7
12:57:56.109052;870;168650;125348;129077;199007;524031;524031;-0.017;-0.996;0.262;61.0;0.0;0;98.7
12:57:56.109052;871;168466;125341;129060;198823;524031;524031;-0.016;-0.997;0.259;61.0;0.0;0;98.7
12:57:56.119000;872;168312;125333;129059;198655;524031;524031;-0.016;-0.998;0.264;61.0;0.0;0;98.7
12:57:56.259297;873;168153;125322;129045;198484;524031;524031;-0.017;-0.996;0.263;61.0;0.0;0;98.7
12:57:56.269128;874;168007;125312;129039;198331;524031;524031;-0.017;-0.997;0.261;61.0;0.0;0;98.7
12:57:56.279202;875;167915;125323;129038;198230;524031;524031;-0.016;-0.997;0.259;61.0;0.0;0;98.7
12:57:56.289404;876;167867;125336;129034;198160;524031;524031;-0.017;-0.998;0.261;61.0;0.0;0;98.7
12:57:56.289404;877;167852;125333;129036;198143;524031;524031;-0.016;-0.997;0.262;61.0;0.0;0;98.7
12:57:56.298969;878;167856;125340;129033;198137;524031;524031;-0.016;-0.998;0.258;61.0;0.0;0;98.7
12:57:56.459282;879;167860;125335;129034;198130;524031;524031;-0.017;-0.997;0.260;61.0;0.0;0;98.7
12:57:56.469228;880;167880;125345;129035;198148;524031;524031;-0.016;-0.997;0.264;61.0;0.0;0;98.7
12:57:56.469228;881;167920;125358;129031;198186;524031;524031;-0.016;-0.996;0.260;61.0;0.0;0;98.7
12:57:56.484189;882;167952;125358;129035;198220;524031;524031;-0.016;-0.997;0.260;61.0;0.0;0;98.7
12:57:56.489236;883;168008;125374;129032;198286;524031;524031;-0.016;-0.997;0.260;61.0;0.0;0;98.7
12:57:56.659225;884;168073;125386;129046;198370;524031;524031;-0.017;-0.998;0.262;61.0;0.0;0;98.7
12:57:56.669216;885;168157;125394;129047;198466;524031;524031;-0.017;-0.998;0.260;61.0;0.0;0;98.7
12:57:56.679421;886;168263;125413;129043;198566;524031;524031;-0.016;-0.997;0.261;61.0;948.1;100;98.7
12:57:56.679421;887;168370;125428;129054;198693;524031;524031;-0.016;-0.997;0.262;61.0;0.0;0;98.7
12:57:56.689146;888;168484;125436;129049;198812;524031;524031;-0.016;-0.997;0.258;61.0;0.0;0;98.7
12:57:56.859022;889;168615;125436;129051;198957;524031;524031;-0.017;-0.997;0.257;61.0;0.0;0;98.7
12:57:56.869074;890;168741;125474;129050;199107;524031;524031;-0.017;-0.997;0.257;61.0;0.0;0;98.7
12:57:56.869074;891;168874;125482;129062;199262;524031;524031;-0.016;-0.996;0.263;61.0;0.0;0;98.7
12:57:56.879246;892;168950;125453;129029;199332;524031;524031;-0.016;-0.997;0.261;61.0;0.0;0;98.7
12:57:56.889195;893;168807;125377;128995;199167;524031;524031;-0.017;-0.998;0.261;61.0;0.0;0;98.7
12:57:57.269117;894;168485;125310;128957;198877;524031;524031;-0.017;-0.996;0.259;61.0;0.0;0;98.7
12:57:57.279196;895;168158;125280;128943;198608;524031;524031;-0.015;-0.997;0.260;61.0;0.0;0;98.7
12:57:57.279196;896;167886;125260;128933;198393;524031;524031;-0.016;-0.998;0.260;61.0;0.0;0;98.7
12:57:57.289238;897;167671;125233;128917;198216;524031;524031;-0.016;-0.996;0.264;61.0;0.0;0;98.7
12:57:57.289238;898;167464;125217;128897;198051;524031;524031;-0.016;-0.995;0.263;61.0;0.0;0;98.8
12:57:57.304343;899;167283;125208;128907;197910;524031;524031;-0.015;-0.997;0.259;61.0;0.0;0;98.8
12:57:57.309382;900;167130;125195;128895;197780;524031;524031;-0.015;-0.998;0.264;61.0;0.0;0;98.8
12:57:57.319267;901;166975;125179;128885;197644;524031;524031;-0.017;-0.997;0.259;60.0;0.0;0;98.8
12:57:57.319290;902;166846;125169;128876;197539;524031;524031;-0.017;-0.997;0.258;60.0;0.0;0;98.8
12:57:57.329199;903;166748;125185;128876;197468;524031;524031;-0.017;-0.997;0.256;60.0;0.0;0;98.8
12:57:57.459168;904;166691;125185;128868;197436;524031;524031;-0.016;-0.997;0.260;60.0;0.0;0;98.8
12:57:57.469222;905;166663;125192;128864;197439;524031;524031;-0.015;-0.997;0.266;60.0;0.0;0;98.8
12:57:57.469222;906;166670;125192;128872;197463;524031;524031;-0.016;-0.997;0.259;60.0;0.0;0;98.8
12:57:57.479359;907;166676;125205;128861;197475;524031;524031;-0.016;-0.996;0.258;60.0;805.6;100;98.8
12:57:57.489186;908;166698;125218;128864;197497;524031;524031;-0.015;-0.998;0.262;60.0;0.0;0;98.8
12:57:57.659072;909;166742;125219;128864;197547;524031;524031;-0.014;-0.997;0.263;60.0;0.0;0;98.8
12:57:57.669088;910;166789;125218;128875;197604;524031;524031;-0.015;-0.997;0.262;60.0;0.0;0;98.8
12:57:57.669088;911;166859;125238;128868;197683;524031;524031;-0.016;-0.997;0.259;60.0;0.0;0;98.8
12:57:57.679197;912;166940;125250;128870;197774;524031;524031;-0.016;-0.998;0.259;60.0;0.0;0;98.8
12:57:57.689024;913;167050;125263;128876;197894;524031;524031;-0.017;-0.996;0.259;60.0;0.0;0;98.8
12:57:57.858952;914;167165;125267;128879;198016;524031;524031;-0.017;-0.998;0.257;60.0;0.0;0;98.8
12:57:57.869001;915;167288;125299;128891;198148;524031;524031;-0.018;-0.998;0.256;60.0;0.0;0;98.8
12:57:57.869001;916;167417;125316;128901;198300;524031;524031;-0.016;-0.998;0.260;60.0;0.0;0;98.8
12:57:57.879374;917;167550;125323;128905;198449;524031;524031;-0.016;-0.997;0.263;60.0;0.0;0;98.8
12:57:57.889225;918;167638;125295;128881;198515;524031;524031;-0.017;-0.998;0.257;60.0;0.0;0;98.8
12:57:58.259336;919;167508;125233;128855;198341;524031;524031;-0.017;-0.997;0.261;60.0;0.0;0;98.8
12:57:58.269367;920;167220;125179;128821;198080;524031;524031;-0.017;-0.996;0.258;60.0;0.0;0;98.8
12:57:58.279133;921;166949;125150;128823;197869;524031;524031;-0.017;-0.997;0.260;60.0;0.0;0;98.8
12:57:58.289047;922;166758;125140;128805;197732;524031;524031;-0.017;-0.998;0.260;60.0;0.0;0;98.8
12:57:58.289047;923;166604;125127;128793;197626;524031;524031;-0.016;-0.996;0.261;60.0;0.0;0;98.8
12:57:58.299072;924;166469;125119;128794;197535;524031;524031;-0.016;-0.996;0.259;60.0;737.1;100;98.8
12:57:58.309134;925;166385;125118;128790;197467;524031;524031;-0.017;-0.998;0.257;60.0;0.0;0;98.8
12:57:58.319223;926;166287;125104;128779;197394;524031;524031;-0.018;-0.997;0.262;60.0;0.0;0;98.8
12:57:58.319223;927;166203;125101;128766;197325;524031;524031;-0.018;-0.996;0.260;60.0;0.0;0;98.8
12:57:58.328957;928;166136;125089;128769;197276;524031;524031;-0.018;-0.998;0.260;60.0;0.0;0;98.8
12:57:58.464025;929;166105;125103;128771;197269;524031;524031;-0.019;-0.998;0.259;60.0;0.0;0;98.8
12:57:58.469082;930;166127;125111;128778;197305;524031;524031;-0.019;-0.997;0.259;60.0;0.0;0;98.8
12:57:58.479247;931;166187;125120;128777;197356;524031;524031;-0.019;-0.997;0.260;60.0;0.0;0;98.8
12:57:58.489183;932;166244;125132;128779;197401;524031;524031;-0.018;-0.998;0.257;60.0;0.0;0;98.8
12:57:58.494190;933;166311;125150;128793;197456;524031;524031;-0.018;-0.997;0.260;60.0;0.0;0;98.8
12:57:58.659128;934;166384;125144;128792;197521;524031;524031;-0.017;-0.997;0.261;60.0;0.0;0;98.8
12:57:58.669194;935;166464;125159;128795;197589;524031;524031;-0.019;-0.997;0.259;60.0;0.0;0;98.8
12:57:58.679031;936;166574;125177;128815;197680;524031;524031;-0.019;-0.997;0.260;60.0;0.0;0;98.8
12:57:58.689320;937;166689;125196;128820;197788;524031;524031;-0.018;-0.998;0.261;60.0;0.0;0;98.8
12:57:58.689320;938;166814;125212;128821;197904;524031;524031;-0.019;-0.997;0.257;60.0;0.0;0;98.8
12:57:58.859305;939;166959;125233;128833;198048;524031;524031;-0.019;-0.998;0.257;60.0;0.0;0;98.8
12:57:58.869342;940;167101;125258;128844;198187;524031;524031;-0.018;-0.998;0.259;60.0;0.0;0;98.8
12:57:58.879427;941;167252;125259;128849;198341;524031;524031;-0.018;-0.998;0.263;60.0;0.0;0;98.8
12:57:58.888989;942;167366;125249;128845;198420;524031;524031;-0.019;-0.998;0.257;60.0;0.0;0;98.8
12:57:58.888989;943;167278;125196;128822;198290;524031;524031;-0.021;-0.996;0.252;60.0;0.0;0;98.8
12:57:59.259071;944;167065;125154;128816;198098;524031;524031;-0.019;-0.998;0.259;60.0;0.0;0;98.8
12:57:59.269187;945;166876;125135;128807;197966;524031;524031;-0.019;-0.998;0.260;60.0;0.0;0;98.8
12:57:59.279131;946;166760;125135;128806;197892;524031;524031;-0.020;-0.997;0.259;60.0;0.0;0;98.8
12:57:59.289065;947;166715;125130;128820;197875;524031;524031;-0.020;-0.997;0.263;60.0;0.0;0;98.8
12:57:59.298992;948;166697;125148;128823;197880;524031;524031;-0.019;-0.998;0.260;60.0;0.0;0;98.8
12:57:59.298992;949;166708;125156;128813;197916;524031;524031;-0.019;-0.998;0.259;60.0;0.0;0;98.8
12:57:59.309028;950;166716;125146;128810;197921;524031;524031;-0.021;-0.996;0.260;60.0;0.0;0;98.8
12:57:59.319078;951;166675;125144;128810;197893;524031;524031;-0.022;-0.997;0.256;60.0;0.0;0;98.8
12:57:59.329049;952;166695;125156;128819;197942;524031;524031;-0.021;-0.997;0.259;60.0;0.0;0;98.8
12:57:59.329049;953;166721;125171;128828;197987;524031;524031;-0.020;-0.997;0.263;60.0;1103.2;100;98.8
12:57:59.459393;954;166774;125180;128831;198061;524031;524031;-0.020;-0.997;0.263;60.0;0.0;0;98.8
12:57:59.468975;955;166856;125198;128849;198139;524031;524031;-0.021;-0.998;0.256;60.0;0.0;0;98.8
12:57:59.479035;956;166957;125219;128864;198228;524031;524031;-0.021;-0.997;0.257;61.0;0.0;0;98.8
12:57:59.489120;957;167067;125239;128867;198337;524031;524031;-0.020;-0.997;0.260;61.0;0.0;0;98.8
12:57:59.499199;958;167204;125252;128878;198483;524031;524031;-0.021;-0.998;0.260;61.0;0.0;0;98.8
12:57:59.659197;959;167322;125264;128881;198605;524031;524031;-0.020;-0.998;0.260;61.0;0.0;0;98.8
12:57:59.669365;960;167459;125292;128894;198742;524031;524031;-0.020;-0.997;0.256;61.0;0.0;0;98.8
12:57:59.679162;961;167580;125301;128906;198872;524031;524031;-0.020;-0.997;0.257;61.0;0.0;0;98.8
12:57:59.689306;962;167718;125328;128915;199042;524031;524031;-0.020;-0.998;0.261;61.0;0.0;0;98.8
12:57:59.689306;963;167884;125340;128917;199216;524031;524031;-0.019;-0.999;0.257;61.0;0.0;0;98.8
12:57:59.859053;964;167970;125324;128910;199283;524031;524031;-0.022;-0.997;0.251;61.0;0.0;0;98.8
12:57:59.869301;965;167865;125266;128885;199148;524031;524031;-0.020;-0.998;0.253;61.0;0.0;0;98.8
12:57:59.879193;966;167658;125232;128878;198993;524031;524031;-0.018;-0.999;0.257;61.0;0.0;0;98.8
12:57:59.889432;967;167479;125218;128866;198905;524031;524031;-0.021;-0.999;0.256;61.0;0.0;0;98.8
12:57:59.889432;968;167384;125219;128874;198882;524031;524031;-0.019;-0.998;0.256;61.0;0.0;0;98.8
12:58:00.259143;969;167328;125230;128876;198859;524031;524031;-0.018;-0.997;0.262;61.0;0.0;0;98.8
12:58:00.274074;970;167317;125243;128883;198887;524031;524031;-0.019;-0.998;0.256;61.0;0.0;0;98.8
12:58:00.279113;971;167330;125245;128887;198926;524031;524031;-0.020;-0.998;0.258;61.0;0.0;0;98.8
12:58:00.289222;972;167313;125233;128879;198926;524031;524031;-0.019;-0.997;0.259;61.0;0.0;0;98.8
12:58:00.289222;973;167299;125239;128880;198941;524031;524031;-0.020;-0.998;0.257;61.0;0.0;0;98.8
12:58:00.299302;974;167339;125255;128885;199004;524031;524031;-0.020;-0.997;0.257;61.0;0.0;0;98.8
12:58:00.309341;975;167397;125266;128887;199101;524031;524031;-0.018;-0.998;0.255;61.0;0.0;0;98.8
12:58:00.319396;976;167487;125289;128896;199223;524031;524031;-0.019;-0.998;0.257;62.0;0.0;0;98.8
12:58:00.319396;977;167592;125307;128901;199347;524031;524031;-0.019;-0.997;0.256;62.0;0.0;0;98.8
12:58:00.329137;978;167712;125318;128910;199484;524031;524031;-0.019;-0.997;0.254;62.0;0.0;0;98.8
12:58:00.459175;979;167818;125325;128918;199585;524031;524031;-0.019;-0.998;0.254;62.0;1037.4;100;98.8
12:58:00.469009;980;167921;125357;128921;199700;524031;524031;-0.020;-0.997;0.257;62.0;0.0;0;98.8
12:58:00.479473;981;168055;125364;128931;199846;524031;524031;-0.019;-0.999;0.262;62.0;0.0;0;98.8
12:58:00.489009;982;168187;125368;128939;199975;524031;524031;-0.018;-0.998;0.257;62.0;0.0;0;98.8
12:58:00.489009;983;168173;125312;128920;199912;524031;524031;-0.021;-0.996;0.251;62.0;0.0;0;98.8
12:58:00.659020;984;167966;125267;128897;199701;524031;524031;-0.019;-0.998;0.258;62.0;0.0;0;98.8
12:58:00.669102;985;167750;125249;128883;199538;524031;524031;-0.018;-0.999;0.258;62.0;0.0;0;98.8
12:58:00.669102;986;167609;125234;128880;199461;524031;524031;-0.019;-0.998;0.254;62.0;0.0;0;98.8
12:58:00.679216;987;167522;125226;128881;199409;524031;524031;-0.018;-0.998;0.260;62.0;0.0;0;98.8
12:58:00.689118;988;167472;125242;128883;199383;524031;524031;-0.019;-0.997;0.257;62.0;0.0;0;98.8
12:58:00.859054;989;167442;125246;128874;199371;524031;524031;-0.020;-0.999;0.258;62.0;0.0;0;98.8
12:58:00.869241;990;167441;125236;128876;199375;524031;524031;-0.020;-0.998;0.260;62.0;0.0;0;98.8
12:58:00.879412;991;167414;125235;128871;199354;524031;524031;-0.020;-0.997;0.256;62.0;0.0;0;98.8
12:58:00.879412;992;167391;125239;128874;199350;524031;524031;-0.020;-0.997;0.255;62.0;0.0;0;98.8
12:58:00.889241;993;167430;125259;128882;199403;524031;524031;-0.020;-0.997;0.259;62.0;0.0;0;98.8
12:58:01.259199;994;167487;125271;128882;199481;524031;524031;-0.019;-0.998;0.260;62.0;0.0;0;98.8
12:58:01.269452;995;167580;125288;128880;199583;524031;524031;-0.019;-0.997;0.258;62.0;0.0;0;98.8
12:58:01.279486;996;167678;125299;128885;199687;524031;524031;-0.018;-0.998;0.258;62.0;0.0;0;98.8
12:58:01.289376;997;167784;125310;128894;199779;524031;524031;-0.019;-0.998;0.260;62.0;0.0;0;98.8
12:58:01.299462;998;167892;125318;128904;199879;524031;524031;-0.020;-0.998;0.258;62.0;0.0;0;98.9
12:58:01.299462;999;168020;125329;128917;199990;524031;524031;-0.020;-0.998;0.257;62.0;0.0;0;98.9
12:58:01.309008;1000;168156;125353;128918;200122;524031;524031;-0.020;-0.996;0.260;62.0;0.0;0;98.9
12:58:01.318989;1001;168314;125378;128924;200266;524031;524031;-0.018;-0.998;0.263;63.0;0.0;0;98.9
12:58:01.328995;1002;168442;125362;128916;200361;524031;524031;-0.018;-0.998;0.258;63.0;948.6;100;98.9
12:58:01.328995;1003;168376;125309;128895;200220;524031;524031;-0.022;-0.995;0.253;63.0;0.0;0;98.9
12:58:01.464268;1004;168113;125253;128872;199947;524031;524031;-0.017;-0.998;0.259;63.0;0.0;0;98.9
12:58:01.469486;1005;167873;125232;128855;199769;524031;524031;-0.018;-0.999;0.262;63.0;0.0;0;98.9
12:58:01.479200;1006;167711;125220;128846;199658;524031;524031;-0.018;-0.996;0.260;63.0;0.0;0;98.9
12:58:01.479200;1007;167591;125207;128830;199564;524031;524031;-0.017;-0.997;0.262;63.0;0.0;0;98.9
12:58:01.489160;1008;167472;125207;128829;199485;524031;524031;-0.015;-0.997;0.260;63.0;0.0;0;98.9
12:58:01.659403;1009;167405;125206;128835;199445;524031;524031;-0.016;-0.998;0.259;63.0;0.0;0;98.9
12:58:01.669244;1010;167330;125200;128828;199392;524031;524031;-0.017;-0.998;0.258;63.0;0.0;0;98.9
12:58:01.679233;1011;167262;125176;128817;199329;524031;524031;-0.019;-0.997;0.260;63.0;0.0;0;98.9
12:58:01.689398;1012;167210;125194;128819;199282;524031;524031;-0.016;-0.997;0.260;63.0;0.0;0;98.9
12:58:01.689398;1013;167187;125209;128837;199257;524031;524031;-0.018;-0.996;0.257;63.0;0.0;0;98.9
12:58:01.859263;1014;167199;125221;128834;199264;524031;524031;-0.017;-0.997;0.260;63.0;0.0;0;98.9
12:58:01.869561;1015;167236;125234;128840;199291;524031;524031;-0.016;-0.997;0.260;63.0;0.0;0;98.9
12:58:01.879248;1016;167277;125242;128845;199326;524031;524031;-0.015;-0.997;0.259;63.0;0.0;0;98.9
12:58:01.889176;1017;167333;125260;128853;199362;524031;524031;-0.016;-0.998;0.260;63.0;0.0;0;98.9
12:58:01.899191;1018;167409;125274;128860;199418;524031;524031;-0.016;-0.997;0.262;63.0;0.0;0;98.9
12:58:02.069128;1019;167489;125288;128868;199477;524031;524031;-0.016;-0.998;0.258;63.0;0.0;0;98.9
12:58:02.079213;1020;167589;125309;128866;199538;524031;524031;-0.015;-0.997;0.261;63.0;0.0;0;98.9
12:58:02.079213;1021;167712;125329;128878;199635;524031;524031;-0.016;-0.997;0.261;63.0;0.0;0;98.9
12:58:02.079213;1022;167836;125344;128888;199740;524031;524031;-0.017;-0.997;0.260;63.0;0.0;0;98.9
12:58:02.088894;1023;167969;125360;128897;199848;524031;524031;-0.017;-0.997;0.259;63.0;0.0;0;98.9
12:58:02.259166;1024;168115;125382;128900;199959;524031;524031;-0.017;-0.998;0.259;63.0;872.8;100;98.9
12:58:02.269380;1025;168275;125394;128905;200097;524031;524031;-0.015;-0.996;0.259;63.0;0.0;0;98.9
12:58:02.284015;1026;168436;125412;128902;200248;524031;524031;-0.017;-0.997;0.257;63.0;0.0;0;98.9
12:58:02.289069;1027;168591;125426;128917;200383;524031;524031;-0.016;-0.997;0.256;63.0;0.0;0;98.9
12:58:02.289069;1028;168761;125443;128921;200546;524031;524031;-0.017;-0.998;0.262;63.0;0.0;0;98.9
12:58:02.458857;1029;168927;125453;128917;200678;524031;524031;-0.016;-0.996;0.260;63.0;0.0;0;98.9
12:58:02.469117;1030;169000;125411;128896;200683;524031;524031;-0.015;-0.997;0.259;63.0;0.0;0;98.9
12:58:02.479078;1031;168816;125334;128870;200458;524031;524031;-0.018;-0.997;0.257;63.0;0.0;0;98.9
12:58:02.479078;1032;168551;125285;128846;200199;524031;524031;-0.017;-0.997;0.258;63.0;0.0;0;98.9
12:58:02.489094;1033;168303;125266;128835;199989;524031;524031;-0.015;-0.997;0.260;63.0;0.0;0;98.9
12:58:02.659116;1034;168132;125254;128833;199854;524031;524031;-0.016;-0.997;0.261;63.0;0.0;0;98.9
12:58:02.669355;1035;167975;125234;128821;199719;524031;524031;-0.016;-0.997;0.260;63.0;0.0;0;98.9
12:58:02.678949;1036;167847;125243;128822;199602;524031;524031;-0.014;-0.997;0.260;64.0;0.0;0;98.9
12:58:02.683956;1037;167754;125235;128813;199516;524031;524031;-0.016;-0.997;0.259;64.0;0.0;0;98.9
12:58:02.688992;1038;167659;125224;128813;199429;524031;524031;-0.016;-0.998;0.261;64.0;0.0;0;98.9
12:58:02.859003;1039;167576;125218;128806;199352;524031;524031;-0.017;-0.997;0.258;64.0;0.0;0;98.9
12:58:02.869298;1040;167527;125232;128816;199303;524031;524031;-0.016;-0.998;0.258;64.0;0.0;0;98.9
12:58:02.879398;1041;167509;125240;128816;199282;524031;524031;-0.016;-0.997;0.257;64.0;0.0;0;98.9
12:58:02.888880;1042;167541;125248;128808;199293;524031;524031;-0.017;-0.998;0.258;64.0;742.2;100;98.9
12:58:02.888880;1043;167588;125264;128823;199331;524031;524031;-0.015;-0.997;0.260;64.0;0.0;0;98.9
12:58:03.059234;1044;167654;125278;128827;199367;524031;524031;-0.016;-0.997;0.259;64.0;0.0;0;98.9
12:58:03.074031;1045;167722;125283;128829;199401;524031;524031;-0.017;-0.998;0.260;64.0;0.0;0;98.9
12:58:03.079072;1046;167800;125300;128834;199462;524031;524031;-0.016;-0.998;0.260;64.0;0.0;0;98.9
12:58:03.088990;1047;167884;125313;128840;199519;524031;524031;-0.015;-0.998;0.258;64.0;0.0;0;98.9
12:58:03.089023;1048;167977;125327;128847;199603;524031;524031;-0.016;-0.998;0.258;64.0;0.0;0;98.9
12:58:03.259414;1049;168096;125348;128857;199687;524031;524031;-0.017;-0.997;0.257;64.0;0.0;0;98.9
12:58:03.274172;1050;168234;125361;128862;199796;524031;524031;-0.016;-0.997;0.258;64.0;0.0;0;98.9
12:58:03.279233;1051;168371;125388;128873;199899;524031;524031;-0.016;-0.998;0.260;64.0;0.0;0;98.9
12:58:03.289087;1052;168526;125392;128878;200026;524031;524031;-0.015;-0.997;0.259;64.0;0.0;0;98.9
12:58:03.289087;1053;168665;125425;128889;200131;524031;524031;-0.018;-0.998;0.255;64.0;0.0;0;98.9
12:58:03.459330;1054;168819;125441;128891;200259;524031;524031;-0.016;-0.999;0.256;64.0;0.0;0;98.9
12:58:03.469212;1055;168987;125459;128911;200394;524031;524031;-0.015;-0.998;0.264;64.0;0.0;0;98.9
12:58:03.479182;1056;169151;125466;128913;200515;524031;524031;-0.016;-0.997;0.256;64.0;0.0;0;98.9
12:58:03.489241;1057;169194;125422;128896;200471;524031;524031;-0.017;-0.997;0.254;64.0;0.0;0;98.9
12:58:03.494246;1058;169044;125358;128855;200235;524031;524031;-0.016;-0.997;0.258;64.0;0.0;0;98.9
12:58:03.659225;1059;168839;125307;128838;199997;524031;524031;-0.015;-0.996;0.256;64.0;0.0;0;98.9
12:58:03.669302;1060;168670;125293;128832;199821;524031;524031;-0.015;-0.999;0.257;64.0;0.0;0;98.9
12:58:03.679263;1061;168571;125285;128829;199714;524031;524031;-0.016;-0.997;0.261;64.0;0.0;0;98.9
12:58:03.689376;1062;168467;125279;128821;199589;524031;524031;-0.017;-0.996;0.263;64.0;797.6;100;98.9
12:58:03.699021;1063;168402;125283;128817;199512;524031;524031;-0.015;-0.996;0.258;64.0;0.0;0;98.9
12:58:03.859407;1064;168360;125276;128818;199444;524031;524031;-0.016;-0.998;0.260;64.0;0.0;0;98.9
12:58:03.869129;1065;168318;125273;128814;199391;524031;524031;-0.016;-0.997;0.261;64.0;0.0;0;98.9
12:58:03.878948;1066;168290;125272;128807;199335;524031;524031;-0.016;-0.997;0.256;64.0;0.0;0;98.9
12:58:03.888938;1067;168257;125276;128805;199287;524031;524031;-0.016;-0.997;0.257;64.0;0.0;0;98.9
12:58:03.888938;1068;168294;125286;128822;199304;524031;524031;-0.016;-0.997;0.260;64.0;0.0;0;98.9
12:58:04.069137;1069;168339;125309;128821;199336;524031;524031;-0.017;-0.997;0.260;64.0;0.0;0;98.9
12:58:04.069137;1070;168399;125318;128828;199380;524031;524031;-0.015;-0.997;0.258;64.0;0.0;0;98.9
12:58:04.078953;1071;168466;125334;128837;199426;524031;524031;-0.016;-0.997;0.257;64.0;0.0;0;98.9
12:58:04.089244;1072;168533;125345;128842;199472;524031;524031;-0.016;-0.998;0.259;64.0;0.0;0;98.9
12:58:04.089244;1073;168645;125365;128856;199547;524031;524031;-0.016;-0.997;0.258;64.0;0.0;0;98.9
12:58:04.259301;1074;168747;125369;128851;199617;524031;524031;-0.016;-0.997;0.257;64.0;0.0;0;98.9
12:58:04.269406;1075;168859;125388;128865;199695;524031;524031;-0.016;-0.997;0.258;64.0;0.0;0;98.9
12:58:04.278921;1076;168976;125409;128868;199799;524031;524031;-0.016;-0.997;0.258;64.0;0.0;0;98.9
12:58:04.278921;1077;169097;125434;128875;199893;524031;524031;-0.016;-0.997;0.259;64.0;0.0;0;98.9
12:58:04.288929;1078;169237;125444;128885;200017;524031;524031;-0.016;-0.998;0.259;64.0;0.0;0;98.9
12:58:04.459263;1079;169398;125464;128888;200156;524031;524031;-0.016;-0.997;0.255;64.0;0.0;0;98.9
12:58:04.469095;1080;169531;125485;128902;200279;524031;524031;-0.016;-0.997;0.257;64.0;0.0;0;98.9
12:58:04.479339;1081;169680;125504;128913;200409;524031;524031;-0.016;-0.999;0.259;64.0;0.0;0;98.9
12:58:04.479339;1082;169861;125521;128925;200555;524031;524031;-0.016;-0.996;0.263;64.0;0.0;0;98.9
12:58:04.489366;1083;169992;125510;128921;200615;524031;524031;-0.014;-0.997;0.253;64.0;0.0;0;98.9
12:58:04.659022;1084;169960;125452;128895;200488;524031;524031;-0.016;-0.997;0.258;64.0;0.0;0;98.9
12:58:04.669167;1085;169773;125396;128867;200225;524031;524031;-0.016;-0.997;0.258;64.0;0.0;0;98.9
12:58:04.679401;1086;169600;125361;128856;200013;524031;524031;-0.015;-0.998;0.256;64.0;0.0;0;98.9
12:58:04.689428;1087;169486;125369;128855;199879;524031;524031;-0.016;-0.998;0.258;64.0;0.0;0;98.9
12:58:04.689428;1088;169422;125361;128859;199786;524031;524031;-0.015;-0.997;0.259;64.0;0.0;0;98.9
12:58:04.864066;1089;169387;125372;128873;199720;524031;524031;-0.014;-0.996;0.258;64.0;0.0;0;98.9
12:58:04.874143;1090;169365;125377;128865;199669;524031;524031;-0.016;-0.998;0.257;64.0;1102.0;100;98.9
12:58:04.879195;1091;169353;125371;128858;199627;524031;524031;-0.016;-0.998;0.261;64.0;0.0;0;98.9
12:58:04.888967;1092;169329;125375;128852;199559;524031;524031;-0.016;-0.996;0.256;64.0;0.0;0;98.9
12:58:04.888967;1093;169309;125371;128854;199515;524031;524031;-0.015;-0.996;0.258;64.0;0.0;0;98.9
12:58:05.059280;1094;169318;125385;128866;199499;524031;524031;-0.015;-0.997;0.259;64.0;0.0;0;98.9
12:58:05.074287;1095;169368;125392;128881;199525;524031;524031;-0.015;-0.997;0.261;64.0;0.0;0;98.9
12:58:05.079345;1096;169441;125417;128865;199583;524031;524031;-0.015;-0.998;0.258;64.0;0.0;0;98.9
12:58:05.089337;1097;169507;125427;128888;199626;524031;524031;-0.015;-0.996;0.258;64.0;0.0;0;98.9
12:58:05.098874;1098;169590;125440;128886;199689;524031;524031;-0.016;-0.997;0.261;64.0;0.0;0;98.9
12:58:05.259184;1099;169693;125458;128889;199765;524031;524031;-0.015;-0.996;0.257;64.0;0.0;0;98.9
12:58:05.269082;1100;169800;125466;128899;199837;524031;524031;-0.016;-0.997;0.257;64.0;0.0;0;98.9
12:58:05.279199;1101;169921;125491;128905;199923;524031;524031;-0.016;-0.997;0.259;64.0;0.0;0;98.9
12:58:05.279199;1102;170049;125512;128923;200020;524031;524031;-0.016;-0.997;0.257;64.0;0.0;0;98.9
12:58:05.289129;1103;170185;125529;128934;200124;524031;524031;-0.015;-0.997;0.259;64.0;0.0;0;98.9
12:58:05.459015;1104;170335;125541;128947;200234;524031;524031;-0.016;-0.997;0.257;64.0;0.0;0;98.9
12:58:05.468989;1105;170486;125560;128948;200362;524031;524031;-0.016;-0.996;0.256;64.0;0.0;0;98.9
12:58:05.479013;1106;170639;125587;128966;200482;524031;524031;-0.016;-0.997;0.257;65.0;0.0;0;98.9
12:58:05.479013;1107;170798;125611;128984;200621;524031;524031;-0.014;-0.997;0.259;65.0;0.0;0;98.9
12:58:05.489098;1108;170967;125628;128982;200760;524031;524031;-0.016;-0.996;0.261;65.0;0.0;0;98.9
12:58:05.658992;1109;171123;125626;128983;200863;524031;524031;-0.014;-0.998;0.255;65.0;0.0;0;98.9
12:58:05.669174;1110;171112;125570;128966;200754;524031;524031;-0.016;-0.997;0.259;65.0;0.0;0;98.9
12:58:05.679032;1111;170957;125517;128939;200522;524031;524031;-0.016;-0.995;0.257;65.0;0.0;0;98.9
12:58:05.679032;1112;170783;125487;128919;200300;524031;524031;-0.013;-0.997;0.259;65.0;0.0;0;98.9
12:58:05.688927;1113;170679;125489;128935;200173;524031;524031;-0.016;-0.997;0.258;65.0;0.0;0;98.9
12:58:05.859156;1114;170629;125488;128927;200086;524031;524031;-0.015;-0.997;0.263;65.0;0.0;0;98.9
12:58:05.874310;1115;170627;125502;128936;200032;524031;524031;-0.014;-0.996;0.259;65.0;0.0;0;98.9
12:58:05.879408;1116;170624;125506;128936;199989;524031;524031;-0.016;-0.997;0.256;65.0;0.0;0;98.9
12:58:05.889296;1117;170639;125503;128932;199958;524031;524031;-0.016;-0.997;0.261;65.0;1074.0;100;98.9
12:58:05.889296;1118;170621;125493;128930;199885;524031;524031;-0.016;-0.997;0.259;65.0;0.0;0;98.9
12:58:06.059287;1119;170615;125499;128934;199821;524031;524031;-0.016;-0.997;0.255;65.0;0.0;0;98.9
12:58:06.074071;1120;170638;125508;128937;199804;524031;524031;-0.016;-0.997;0.257;65.0;0.0;0;98.9
12:58:06.084123;1121;170685;125520;128941;199800;524031;524031;-0.015;-0.996;0.259;65.0;0.0;0;98.9
12:58:06.094183;1122;170768;125535;128950;199843;524031;524031;-0.015;-0.997;0.257;65.0;0.0;0;98.9
12:58:06.099214;1123;170856;125554;128957;199874;524031;524031;-0.015;-0.997;0.258;65.0;0.0;0;98.9
12:58:06.258880;1124;170960;125570;128974;199927;524031;524031;-0.015;-0.997;0.258;65.0;0.0;0;98.9
12:58:06.268927;1125;171058;125583;128970;199975;524031;524031;-0.016;-0.997;0.259;65.0;0.0;0;98.9
12:58:06.279138;1126;171180;125596;128986;200040;524031;524031;-0.015;-0.998;0.257;65.0;0.0;0;98.9
12:58:06.288959;1127;171310;125619;128993;200116;524031;524031;-0.016;-0.997;0.259;65.0;0.0;0;98.9
12:58:06.288959;1128;171433;125639;129003;200188;524031;524031;-0.015;-0.998;0.258;65.0;0.0;0;98.9
12:58:06.459167;1129;171572;125656;129011;200274;524031;524031;-0.015;-0.997;0.259;65.0;0.0;0;98.9
12:58:06.469145;1130;171718;125670;129022;200366;524031;524031;-0.014;-0.996;0.259;65.0;0.0;0;98.9
12:58:06.479350;1131;171849;125693;129024;200450;524031;524031;-0.015;-0.997;0.256;65.0;0.0;0;98.9
12:58:06.488977;1132;171993;125705;129051;200547;524031;524031;-0.015;-0.997;0.258;65.0;0.0;0;98.9
12:58:06.488977;1133;172153;125731;129056;200674;524031;524031;-0.015;-0.998;0.260;65.0;0.0;0;98.9
12:58:06.659268;1134;172306;125744;129069;200783;524031;524031;-0.016;-0.997;0.259;65.0;0.0;0;98.9
12:58:06.669173;1135;172408;125736;129062;200806;524031;524031;-0.014;-0.998;0.257;65.0;0.0;0;98.9
12:58:06.678990;1136;172348;125662;129035;200625;524031;524031;-0.015;-0.996;0.260;65.0;0.0;0;98.9
12:58:06.678990;1137;172174;125613;129015;200354;524031;524031;-0.014;-0.997;0.257;65.0;0.0;0;98.9
12:58:06.689141;1138;172038;125598;129006;200141;524031;524031;-0.015;-0.998;0.258;65.0;0.0;0;98.9
12:58:06.864277;1139;171972;125599;129004;200018;524031;524031;-0.015;-0.997;0.261;65.0;0.0;0;98.9
12:58:06.874319;1140;171959;125604;128998;199936;524031;524031;-0.014;-0.997;0.262;65.0;0.0;0;98.9
12:58:06.879469;1141;171969;125602;129005;199879;524031;524031;-0.014;-0.996;0.254;65.0;0.0;0;98.9
12:58:06.889006;1142;171976;125605;129005;199820;524031;524031;-0.015;-0.998;0.260;65.0;0.0;0;98.9
12:58:06.889006;1143;171979;125604;128994;199748;524031;524031;-0.016;-0.996;0.260;65.0;0.0;0;98.9
12:58:07.059181;1144;171965;125596;129009;199658;524031;524031;-0.014;-0.996;0.257;65.0;1056.4;100;98.9
12:58:07.069305;1145;171964;125599;129003;199592;524031;524031;-0.015;-0.996;0.254;65.0;0.0;0;98.9
12:58:07.079341;1146;171974;125617;128997;199557;524031;524031;-0.017;-0.997;0.260;66.0;0.0;0;98.9
12:58:07.089413;1147;172013;125633;129010;199558;524031;524031;-0.015;-0.997;0.258;66.0;0.0;0;98.9
12:58:07.089413;1148;172095;125639;129019;199583;524031;524031;-0.016;-0.997;0.258;66.0;0.0;0;98.9
12:58:07.259410;1149;172167;125655;129020;199615;524031;524031;-0.016;-0.997;0.258;66.0;0.0;0;98.9
12:58:07.269278;1150;172264;125672;129027;199674;524031;524031;-0.015;-0.997;0.257;66.0;0.0;0;98.9
12:58:07.278914;1151;172364;125687;129033;199725;524031;524031;-0.016;-0.997;0.257;66.0;0.0;0;98.9
12:58:07.288975;1152;172458;125702;129045;199785;524031;524031;-0.015;-0.998;0.256;66.0;0.0;0;98.9
12:58:07.288975;1153;172569;125730;129050;199872;524031;524031;-0.016;-0.997;0.257;66.0;0.0;0;98.9
12:58:07.459091;1154;172674;125729;129050;199952;524031;524031;-0.015;-0.997;0.258;66.0;0.0;0;98.9
12:58:07.468973;1155;172796;125747;129057;200046;524031;524031;-0.015;-0.996;0.257;66.0;0.0;0;98.9
12:58:07.479327;1156;172912;125759;129076;200135;524031;524031;-0.015;-0.997;0.256;66.0;0.0;0;98.9
12:58:07.488920;1157;173048;125776;129072;200243;524031;524031;-0.014;-0.997;0.253;66.0;0.0;0;98.9
12:58:07.488920;1158;173178;125794;129083;200354;524031;524031;-0.016;-0.997;0.260;66.0;0.0;0;98.9
12:58:07.659088;1159;173325;125804;129092;200458;524031;524031;-0.015;-0.998;0.256;66.0;0.0;0;98.9
12:58:07.668974;1160;173392;125774;129082;200456;524031;524031;-0.015;-0.998;0.257;66.0;0.0;0;98.9
12:58:07.679123;1161;173296;125711;129051;200261;524031;524031;-0.017;-0.997;0.255;66.0;0.0;0;98.9
12:58:07.689179;1162;173105;125669;129026;199972;524031;524031;-0.014;-0.997;0.257;66.0;0.0;0;98.9
12:58:07.699249;1163;172961;125660;129025;199758;524031;524031;-0.015;-0.998;0.255;66.0;0.0;0;98.9
12:58:07.859342;1164;172865;125649;129023;199618;524031;524031;-0.017;-0.995;0.261;66.0;0.0;0;98.9
12:58:07.868983;1165;172830;125654;129023;199543;524031;524031;-0.013;-0.995;0.260;66.0;0.0;0;98.9
12:58:07.878990;1166;172816;125661;129034;199488;524031;524031;-0.015;-0.998;0.254;66.0;0.0;0;98.9
12:58:07.889049;1167;172808;125661;129027;199429;524031;524031;-0.015;-0.999;0.255;66.0;0.0;0;98.9
12:58:07.889049;1168;172797;125648;129012;199374;524031;524031;-0.015;-0.998;0.257;66.0;0.0;0;98.9
12:58:08.068884;1169;172749;125642;129016;199264;524031;524031;-0.014;-0.998;0.255;66.0;0.0;0;98.9
12:58:08.079199;1170;172725;125646;129011;199184;524031;524031;-0.016;-0.997;0.255;66.0;1043.2;100;98.9
12:58:08.084204;1171;172758;125653;129015;199171;524031;524031;-0.014;-0.997;0.258;66.0;0.0;0;98.9
12:58:08.089241;1172;172799;125669;129020;199160;524031;524031;-0.014;-0.997;0.261;66.0;0.0;0;98.9
12:58:08.089241;1173;172848;125677;129026;199181;524031;524031;-0.015;-0.997;0.257;66.0;0.0;0;98.9
12:58:08.259332;1174;172913;125688;129031;199217;524031;524031;-0.015;-0.997;0.258;66.0;0.0;0;98.9
12:58:08.269214;1175;172983;125707;129047;199258;524031;524031;-0.015;-0.997;0.257;66.0;0.0;0;98.9
12:58:08.279000;1176;173046;125713;129036;199296;524031;524031;-0.015;-0.997;0.256;66.0;0.0;0;98.9
12:58:08.289178;1177;173130;125727;129052;199359;524031;524031;-0.015;-0.997;0.258;66.0;0.0;0;98.9
12:58:08.289178;1178;173226;125745;129051;199428;524031;524031;-0.015;-0.998;0.257;66.0;0.0;0;98.9
12:58:08.458958;1179;173322;125753;129063;199504;524031;524031;-0.015;-0.996;0.256;66.0;0.0;0;98.9
12:58:08.469347;1180;173417;125780;129077;199585;524031;524031;-0.015;-0.997;0.256;66.0;0.0;0;98.9
12:58:08.479343;1181;173515;125794;129083;199658;524031;524031;-0.015;-0.997;0.256;66.0;0.0;0;98.9
12:58:08.489225;1182;173641;125803;129090;199769;524031;524031;-0.015;-0.997;0.260;66.0;0.0;0;98.9
12:58:08.499317;1183;173760;125820;129103;199875;524031;524031;-0.014;-0.997;0.258;66.0;0.0;0;98.9
12:58:08.668931;1184;173815;125795;129078;199869;524031;524031;-0.015;-0.998;0.257;66.0;0.0;0;98.9
12:58:08.668931;1185;173696;125723;129047;199662;524031;524031;-0.016;-0.996;0.255;66.0;0.0;0;98.9
12:58:08.679017;1186;173475;125675;129035;199365;524031;524031;-0.014;-0.996;0.258;66.0;0.0;0;98.9
12:58:08.689338;1187;173287;125654;129025;199133;524031;524031;-0.016;-0.999;0.256;66.0;0.0;0;98.9
12:58:08.698875;1188;173168;125661;129019;198997;524031;524031;-0.015;-0.997;0.258;66.0;0.0;0;98.9
12:58:08.859057;1189;173107;125655;129014;198895;524031;524031;-0.014;-0.996;0.260;66.0;0.0;0;98.9
12:58:08.869103;1190;173075;125661;129015;198817;524031;524031;-0.015;-0.997;0.252;66.0;0.0;0;98.9
12:58:08.879150;1191;173053;125656;129021;198752;524031;524031;-0.014;-0.998;0.258;65.0;0.0;0;98.9
12:58:08.889218;1192;173014;125644;129002;198670;524031;524031;-0.016;-0.997;0.257;65.0;0.0;0;98.9
12:58:08.889218;1193;172951;125624;128996;198554;524031;524031;-0.015;-0.998;0.256;65.0;0.0;0;98.9
12:58:09.059148;1194;172907;125627;128995;198465;524031;524031;-0.016;-0.997;0.255;65.0;0.0;0;98.9
12:58:09.079260;1195;172894;125637;128998;198429;524031;524031;-0.016;-0.997;0.258;65.0;1021.9;100;98.9
12:58:09.089168;1196;172911;125649;128995;198422;524031;524031;-0.015;-0.998;0.257;65.0;0.0;0;98.9
12:58:09.099237;1197;172943;125661;129002;198448;524031;524031;-0.015;-0.998;0.257;65.0;0.0;0;98.9
12:58:09.104242;1198;172987;125677;129004;198486;524031;524031;-0.016;-0.998;0.256;65.0;0.0;0;98.9
12:58:09.269132;1199;173039;125673;129013;198513;524031;524031;-0.016;-0.997;0.258;65.0;0.0;0;98.9
12:58:09.279188;1200;173109;125697;129015;198564;524031;524031;-0.014;-0.998;0.258;65.0;0.0;0;98.9
12:58:09.279188;1201;173171;125703;129023;198607;524031;524031;-0.015;-0.998;0.256;65.0;0.0;0;98.9
12:58:09.289104;1202;173250;125714;129042;198662;524031;524031;-0.014;-0.997;0.257;65.0;0.0;0;98.9
12:58:09.299142;1203;173323;125732;129033;198712;524031;524031;-0.015;-0.996;0.256;65.0;0.0;0;98.9
12:58:09.459385;1204;173410;125749;129048;198785;524031;524031;-0.015;-0.997;0.254;65.0;0.0;0;98.9
12:58:09.469242;1205;173492;125762;129059;198857;524031;524031;-0.014;-0.997;0.258;65.0;0.0;0;98.9
12:58:09.478831;1206;173591;125770;129054;198955;524031;524031;-0.014;-0.997;0.263;65.0;0.0;0;98.9
12:58:09.488871;1207;173692;125785;129062;199035;524031;524031;-0.014;-0.997;0.255;65.0;0.0;0;98.9
12:58:09.488871;1208;173698;125740;129034;198983;524031;524031;-0.014;-0.997;0.260;65.0;0.0;0;98.9
12:58:09.669134;1209;173514;125674;129019;198718;524031;524031;-0.015;-0.995;0.257;65.0;0.0;0;98.9
12:58:09.669134;1210;173250;125626;128987;198409;524031;524031;-0.013;-0.997;0.257;65.0;0.0;0;98.9
12:58:09.679059;1211;173062;125613;128977;198196;524031;524031;-0.015;-0.998;0.257;65.0;0.0;0;98.9
12:58:09.688905;1212;172927;125606;128977;198045;524031;524031;-0.014;-0.997;0.259;65.0;0.0;0;98.9
12:58:09.699011;1213;172860;125597;128974;197950;524031;524031;-0.013;-0.996;0.258;65.0;0.0;0;98.9
12:58:09.868984;1214;172787;125606;128969;197856;524031;524031;-0.015;-0.998;0.254;65.0;0.0;0;98.9
12:58:09.873991;1215;172709;125601;128967;197757;524031;524031;-0.015;-0.998;0.260;65.0;0.0;0;98.9
12:58:09.879040;1216;172619;125573;128959;197625;524031;524031;-0.015;-0.997;0.259;65.0;0.0;0;98.9
12:58:09.889032;1217;172516;125572;128939;197490;524031;524031;-0.015;-0.998;0.255;65.0;0.0;0;98.9
12:58:09.899236;1218;172444;125568;128941;197399;524031;524031;-0.015;-0.997;0.257;65.0;0.0;0;98.9
12:58:10.064045;1219;172415;125576;128944;197348;524031;524031;-0.015;-0.997;0.260;65.0;0.0;0;98.9
12:58:10.079156;1220;172403;125593;128947;197325;524031;524031;-0.015;-0.998;0.259;65.0;998.1;100;98.9
12:58:10.079156;1221;172409;125596;128949;197315;524031;524031;-0.015;-0.997;0.259;64.0;0.0;0;98.9
12:58:10.093674;1222;172433;125599;128946;197311;524031;524031;-0.015;-0.996;0.258;64.0;0.0;0;98.9
12:58:10.098522;1223;172458;125613;128955;197318;524031;524031;-0.015;-0.996;0.258;64.0;0.0;0;98.9
12:58:10.269228;1224;172479;125620;128964;197316;524031;524031;-0.015;-0.997;0.257;64.0;0.0;0;98.9
12:58:10.269228;1225;172534;125632;128959;197357;524031;524031;-0.015;-0.997;0.258;64.0;0.0;0;98.9
