timestmp;smpleCnt;grnCnt;led2;led3;grn2Cnt;irCnt;redCnt;accelX;accelY;accelZ;hr3;rr5;rrsecure;spo2
09:46:01.575507;0;140250;35085;33184;139453;106621;106666;-0.403;-0.824;0.463;60.0;0.0;0;0.0
09:46:01.579505;1;271616;35078;33187;270054;237322;237371;-0.405;-0.819;0.463;60.0;0.0;0;0.0
09:46:01.583507;2;292274;35071;33197;271779;368510;368568;-0.405;-0.818;0.462;60.0;0.0;0;0.0
09:46:01.586613;3;240029;35073;33190;219819;493669;493714;-0.407;-0.826;0.463;60.0;0.0;0;0.0
09:46:01.586613;4;202808;35079;33205;180650;524159;524159;-0.405;-0.821;0.464;60.0;0.0;0;0.0
09:46:01.591690;5;183833;35074;33201;166641;524159;524159;-0.404;-0.823;0.465;60.0;0.0;0;0.0
09:46:01.591690;6;171820;35076;33199;155689;524159;524159;-0.402;-0.825;0.463;60.0;0.0;0;0.0
09:46:01.601373;7;171705;35076;33200;155552;524159;524159;-0.403;-0.829;0.464;60.0;0.0;0;0.0
09:46:01.606389;8;171559;35061;33191;155401;524159;524159;-0.402;-0.819;0.465;60.0;0.0;0;0.0
09:46:01.612472;9;171423;35045;33167;155264;524159;524159;-0.403;-0.822;0.461;60.0;0.0;0;0.0
09:46:01.613682;10;171305;35025;33149;155138;524159;524159;-0.405;-0.825;0.460;60.0;0.0;0;0.0
09:46:01.613682;11;171228;35018;33147;155038;524159;524159;-0.405;-0.822;0.461;60.0;0.0;0;0.0
09:46:01.623646;12;171136;66902;63423;154906;524159;524159;-0.404;-0.824;0.459;60.0;0.0;0;0.0
09:46:01.626643;13;171067;70023;65392;154807;524159;524159;-0.402;-0.826;0.461;60.0;0.0;0;0.0
09:46:01.629642;14;171012;70025;65390;154719;524159;524159;-0.403;-0.828;0.461;60.0;0.0;0;0.0
09:46:01.631640;15;170962;70013;65394;154629;524159;524159;-0.403;-0.825;0.460;60.0;0.0;0;0.0
09:46:01.634638;16;170922;70007;65399;154552;524159;524159;-0.402;-0.830;0.460;60.0;0.0;0;0.0
09:46:01.637638;17;170878;69992;65372;154468;524159;524159;-0.400;-0.834;0.458;60.0;0.0;0;0.0
09:46:01.741352;18;170840;69980;65358;154383;524159;524159;-0.400;-0.830;0.459;60.0;0.0;0;0.0
09:46:01.741352;19;170832;69957;65340;154329;524159;524159;-0.402;-0.834;0.457;60.0;0.0;0;0.0
09:46:01.751537;20;170812;69957;65339;154266;524159;524159;-0.402;-0.833;0.456;60.0;0.0;0;0.0
09:46:01.762117;21;170792;69963;65343;154200;524159;524159;-0.401;-0.837;0.457;60.0;0.0;0;0.0
09:46:01.762117;22;170683;69948;65351;154079;524159;524159;-0.402;-0.834;0.455;60.0;0.0;0;0.0
09:46:01.941603;23;170438;69936;65369;153860;524159;524159;-0.401;-0.828;0.453;60.0;0.0;0;0.0
09:46:01.946612;24;170171;122282;117793;153622;524159;524159;-0.401;-0.831;0.455;60.0;0.0;0;0.0
09:46:01.951677;25;169954;137537;128599;153408;524159;524159;-0.401;-0.838;0.456;60.0;0.0;0;0.0
09:46:01.962108;26;169769;137479;128599;153219;524159;524159;-0.401;-0.841;0.455;60.0;0.0;0;0.0
09:46:01.971596;27;169587;137423;128568;153035;524159;524159;-0.399;-0.835;0.456;60.0;0.0;0;0.0
09:46:02.141831;28;169444;137366;128524;152867;524159;524159;-0.400;-0.832;0.453;60.0;0.0;0;0.0
09:46:02.146337;29;169306;137321;128486;152711;524159;524159;-0.401;-0.837;0.455;60.0;0.0;0;0.0
09:46:02.151364;30;169175;137303;128479;152557;524159;524159;-0.400;-0.838;0.458;60.0;0.0;0;0.0
09:46:02.162494;31;169040;137255;128437;152387;524159;524159;-0.400;-0.832;0.454;60.0;0.0;0;0.0
09:46:02.162494;32;168919;137210;128388;152245;524159;524159;-0.401;-0.835;0.454;60.0;0.0;0;0.0
09:46:02.341618;33;168813;137184;128349;152109;524159;524159;-0.400;-0.835;0.454;60.0;0.0;0;0.0
09:46:02.356562;34;168738;137146;128302;151999;524159;524159;-0.400;-0.833;0.458;60.0;0.0;0;0.0
09:46:02.361598;35;168659;137114;128254;151899;524159;524159;-0.400;-0.835;0.455;60.0;0.0;0;0.0
09:46:02.362614;36;168588;140786;131676;151787;524159;524159;-0.400;-0.835;0.456;60.0;0.0;0;0.0
09:46:02.371632;37;168543;140784;131640;151718;524159;524159;-0.400;-0.836;0.455;60.0;0.0;0;0.0
09:46:02.541546;38;168500;140744;131583;151639;524159;524159;-0.400;-0.834;0.455;60.0;0.0;0;0.0
09:46:02.541546;39;168448;140676;131516;151549;524159;524159;-0.400;-0.834;0.456;60.0;0.0;0;0.0
09:46:02.551807;40;168422;140600;131427;151485;524159;524159;-0.400;-0.835;0.456;60.0;0.0;0;0.0
09:46:02.562922;41;168390;140534;131350;151417;524159;524159;-0.400;-0.833;0.453;60.0;0.0;0;0.0
09:46:02.571457;42;168379;140496;131303;151360;524159;524159;-0.401;-0.829;0.450;60.0;0.0;0;0.0
09:46:02.741591;43;168336;140490;131292;151275;524159;524159;-0.401;-0.838;0.454;60.0;0.0;0;0.0
09:46:02.741591;44;168341;140490;131289;151224;524159;524159;-0.400;-0.836;0.455;60.0;0.0;0;0.0
09:46:02.756737;45;168263;140454;131292;151103;524159;524159;-0.400;-0.838;0.456;60.0;0.0;0;0.0
09:46:02.763328;46;168060;140412;131295;150895;524159;524159;-0.400;-0.836;0.452;60.0;0.0;0;0.0
09:46:02.771365;47;167826;140397;131303;150655;524159;524159;-0.400;-0.833;0.452;60.0;0.0;0;0.0
09:46:02.945950;48;167630;140386;131320;150419;524159;524159;-0.401;-0.837;0.449;60.0;0.0;0;0.0
09:46:02.951611;49;167499;140377;131325;150236;524159;524159;-0.400;-0.842;0.448;60.0;0.0;0;0.0
09:46:02.951611;50;167363;140354;131295;150050;524159;524159;-0.400;-0.838;0.450;60.0;0.0;0;0.0
09:46:02.963246;51;167243;140309;131256;149873;524159;524159;-0.400;-0.840;0.451;60.0;0.0;0;0.0
09:46:02.971776;52;167151;140271;131230;149703;524159;524159;-0.400;-0.843;0.448;60.0;0.0;0;0.0
09:46:03.141615;53;167024;140239;131201;149531;524159;524159;-0.399;-0.842;0.451;60.0;0.0;0;0.0
09:46:03.151482;54;166909;140163;131141;149361;524159;524159;-0.400;-0.837;0.446;60.0;0.0;0;0.0
09:46:03.151482;55;166807;140078;131061;149184;524159;524159;-0.400;-0.843;0.443;60.0;0.0;0;0.0
09:46:03.163515;56;166747;140038;131033;149050;524159;524159;-0.401;-0.843;0.446;60.0;0.0;0;0.0
09:46:03.171541;57;166672;139992;130989;148912;524159;524159;-0.401;-0.840;0.447;60.0;0.0;0;0.0
09:46:03.341615;58;166627;139955;130942;148790;524159;524159;-0.401;-0.841;0.447;60.0;0.0;0;0.0
09:46:03.351634;59;166597;139921;130892;148685;524159;524159;-0.400;-0.842;0.446;60.0;0.0;0;0.0
09:46:03.351634;60;166553;139888;130869;148576;524159;524159;-0.402;-0.839;0.446;60.0;0.0;0;0.0
09:46:03.363689;61;166543;139856;130833;148475;524159;524159;-0.401;-0.837;0.445;60.0;0.0;0;0.0
09:46:03.371716;62;166505;139829;130804;148369;524159;524159;-0.401;-0.840;0.444;60.0;0.0;0;0.0
09:46:03.541539;63;166491;139795;130777;148268;524159;524159;-0.402;-0.844;0.448;60.0;0.0;0;0.0
09:46:03.551652;64;166468;139742;130734;148158;524159;524159;-0.403;-0.845;0.444;60.0;0.0;0;0.0
09:46:03.563839;65;166376;139698;130737;147998;524159;524159;-0.403;-0.838;0.443;60.0;0.0;0;0.0
09:46:03.563839;66;166175;139689;130797;147743;524159;524159;-0.403;-0.834;0.441;60.0;0.0;0;0.0
09:46:03.571419;67;165996;139697;130845;147480;524159;524159;-0.403;-0.839;0.442;60.0;0.0;0;0.0
09:46:03.741555;68;165861;139695;130852;147248;524159;524159;-0.406;-0.839;0.442;60.0;0.0;0;0.0
09:46:03.751610;69;165762;139666;130818;147054;524159;524159;-0.405;-0.841;0.444;60.0;0.0;0;0.0
09:46:03.756618;70;165664;139593;130741;146861;524159;524159;-0.403;-0.837;0.442;60.0;0.0;0;0.0
09:46:03.764256;71;165569;139514;130654;146686;524159;524159;-0.403;-0.840;0.441;60.0;0.0;0;0.0
09:46:03.771784;72;165490;139453;130588;146514;524159;524159;-0.406;-0.843;0.444;60.0;0.0;0;0.0
09:46:03.941752;73;165395;139397;130525;146338;524159;524159;-0.407;-0.833;0.439;60.0;0.0;0;0.0
09:46:03.951333;74;165299;139340;130468;146158;524159;524159;-0.406;-0.843;0.434;60.0;0.0;0;0.0
09:46:03.956341;75;165228;139283;130394;146005;524159;524159;-0.406;-0.840;0.435;60.0;0.0;0;0.0
09:46:03.964435;76;165179;139222;130305;145860;524159;524159;-0.406;-0.842;0.438;60.0;0.0;0;0.0
09:46:03.971478;77;165152;139161;130228;145730;524159;524159;-0.406;-0.841;0.435;60.0;0.0;0;0.0
09:46:04.141507;78;165112;139102;130165;145597;524159;524159;-0.408;-0.839;0.435;60.0;0.0;0;0.0
09:46:04.151520;79;165096;139094;130136;145481;524159;524159;-0.409;-0.838;0.433;60.0;0.0;0;0.0
09:46:04.161339;80;165074;139100;130143;145370;524159;524159;-0.407;-0.843;0.441;60.0;478.9;25;0.0
09:46:04.164368;81;165065;139077;130110;145258;524159;524159;-0.408;-0.847;0.439;60.0;0.0;0;0.0
09:46:04.171481;82;165001;139037;130085;145107;524159;524159;-0.409;-0.833;0.436;60.0;0.0;0;0.0
09:46:04.341634;83;164822;139023;130112;144863;524159;524159;-0.407;-0.837;0.433;60.0;0.0;0;0.0
09:46:04.351703;84;164648;139031;130131;144603;524159;524159;-0.408;-0.844;0.435;60.0;0.0;0;0.0
09:46:04.356710;85;164523;139034;130145;144366;524159;524159;-0.408;-0.841;0.434;60.0;0.0;0;0.0
09:46:04.364787;86;164434;139027;130104;144160;524159;524159;-0.406;-0.845;0.435;60.0;0.0;0;0.0
09:46:04.371315;87;164355;138982;130044;143962;524159;524159;-0.405;-0.839;0.433;60.0;0.0;0;0.0
09:46:04.541581;88;164299;138941;129993;143784;524159;524159;-0.405;-0.846;0.435;60.0;0.0;0;0.0
09:46:04.551648;89;164247;138942;129987;143611;524159;524159;-0.405;-0.846;0.435;59.0;0.0;0;0.0
09:46:04.551648;90;164175;138983;130006;143426;524159;524159;-0.406;-0.837;0.434;59.0;0.0;0;0.0
09:46:04.565221;91;164119;139004;130025;143261;524159;524159;-0.407;-0.841;0.435;59.0;0.0;0;0.0
09:46:04.576885;92;164074;138998;130001;143110;524159;524159;-0.405;-0.843;0.437;59.0;0.0;0;0.0
09:46:04.751452;93;164032;138985;129962;142960;524159;524159;-0.404;-0.843;0.436;59.0;0.0;0;0.0
09:46:04.761495;94;164014;138992;129942;142852;524159;524159;-0.402;-0.845;0.436;59.0;0.0;0;0.0
09:46:04.761495;95;163998;139019;129937;142738;524159;524159;-0.402;-0.847;0.437;59.0;0.0;0;0.0
09:46:04.765515;96;163989;139028;129950;142637;524159;524159;-0.401;-0.846;0.437;59.0;0.0;0;0.0
09:46:04.771558;97;163981;139071;129953;142543;524159;524159;-0.400;-0.850;0.440;59.0;0.0;0;0.0
09:46:04.946738;98;163946;139058;129941;142434;524159;524159;-0.400;-0.850;0.437;59.0;0.0;0;0.0
09:46:04.951792;99;163822;139026;129950;142252;524159;524159;-0.400;-0.852;0.437;59.0;0.0;0;0.0
09:46:04.961428;100;163644;139013;129962;142012;524159;524159;-0.401;-0.845;0.438;59.0;0.0;0;0.0
09:46:04.965456;101;163485;138984;129927;141765;524159;524159;-0.400;-0.848;0.434;59.0;0.0;0;0.0
09:46:04.971482;102;163372;138951;129890;141548;524159;524159;-0.400;-0.855;0.435;59.0;0.0;0;0.0
09:46:05.141746;103;163266;138909;129830;141350;524159;524159;-0.400;-0.853;0.437;59.0;0.0;0;0.0
09:46:05.151649;104;163157;138877;129783;141158;524159;524159;-0.400;-0.854;0.438;59.0;0.0;0;0.0
09:46:05.161276;105;163074;138846;129755;140983;524159;524159;-0.399;-0.853;0.434;59.0;0.0;0;0.0
09:46:05.165791;106;163003;138843;129738;140818;524159;524159;-0.398;-0.855;0.438;59.0;925.1;25;0.0
09:46:05.171316;107;162917;138833;129715;140660;524159;524159;-0.399;-0.850;0.439;59.0;0.0;0;0.0
09:46:05.341521;108;162852;138797;129664;140517;524159;524159;-0.400;-0.850;0.436;59.0;0.0;0;0.0
09:46:05.351566;109;162795;138763;129610;140380;524159;524159;-0.401;-0.851;0.436;59.0;0.0;0;0.0
09:46:05.356574;110;162772;138730;129554;140281;524159;524159;-0.400;-0.852;0.435;59.0;0.0;0;0.0
09:46:05.366161;111;162759;138690;129479;140198;524159;524159;-0.400;-0.855;0.435;59.0;0.0;0;0.0
09:46:05.371698;112;162714;138640;129408;140093;524159;524159;-0.400;-0.851;0.436;59.0;0.0;0;0.0
09:46:05.546736;113;162695;138613;129355;140012;524159;524159;-0.399;-0.851;0.436;59.0;0.0;0;0.0
09:46:05.551773;114;162675;138598;129313;139935;524159;524159;-0.400;-0.851;0.434;59.0;0.0;0;0.0
09:46:05.566523;115;162662;138583;129265;139865;524159;524159;-0.399;-0.851;0.438;59.0;0.0;0;0.0
09:46:05.566523;116;162640;138528;129214;139790;524159;524159;-0.400;-0.854;0.438;59.0;0.0;0;0.0
09:46:05.571553;117;162517;138463;129177;139626;524159;524159;-0.399;-0.855;0.432;59.0;0.0;0;0.0
09:46:05.746627;118;162314;138422;129166;139362;524159;524159;-0.399;-0.848;0.437;59.0;0.0;0;0.0
09:46:05.751764;119;162155;138389;129149;139119;524159;524159;-0.399;-0.854;0.434;59.0;0.0;0;0.0
09:46:05.751764;120;162022;138379;129123;138874;524159;524159;-0.400;-0.856;0.435;59.0;0.0;0;0.0
09:46:05.766476;121;161875;138328;129080;138599;524159;524159;-0.399;-0.854;0.439;59.0;0.0;0;0.0
09:46:05.771499;122;161747;138283;129027;138390;524159;524159;-0.399;-0.851;0.437;59.0;0.0;0;0.0
09:46:05.941741;123;161638;138249;128998;138204;524159;524159;-0.399;-0.852;0.435;59.0;0.0;0;0.0
09:46:05.951746;124;161541;138233;128963;138032;524159;524159;-0.399;-0.858;0.436;59.0;784.3;50;0.0
09:46:05.961487;125;161466;138213;128928;137893;524159;524159;-0.399;-0.854;0.437;59.0;0.0;0;0.0
09:46:05.966796;126;161395;138179;128878;137759;524159;524159;-0.399;-0.849;0.434;59.0;0.0;0;0.0
09:46:05.971324;127;161327;138124;128835;137629;524159;524159;-0.400;-0.857;0.434;59.0;0.0;0;0.0
09:46:06.141626;128;161284;138114;128793;137520;524159;524159;-0.399;-0.854;0.434;59.0;0.0;0;0.0
09:46:06.151442;129;161244;138088;128754;137423;524159;524159;-0.400;-0.856;0.435;59.0;0.0;0;0.0
09:46:06.166711;130;161216;138053;128699;137342;524159;524159;-0.399;-0.855;0.436;59.0;0.0;0;0.0
09:46:06.166711;131;161176;138042;128667;137247;524159;524159;-0.399;-0.854;0.434;59.0;0.0;0;0.0
09:46:06.171747;132;161167;138021;128633;137182;524159;524159;-0.399;-0.855;0.436;59.0;0.0;0;0.0
09:46:06.341809;133;161156;137997;128591;137123;524159;524159;-0.399;-0.854;0.434;59.0;0.0;0;0.0
09:46:06.351424;134;161136;137966;128549;137059;524159;524159;-0.399;-0.856;0.435;59.0;0.0;0;0.0
09:46:06.351424;135;161144;137942;128504;137011;524159;524159;-0.399;-0.857;0.434;59.0;0.0;0;0.0
09:46:06.366805;136;161144;137930;128451;136967;524159;524159;-0.399;-0.856;0.433;59.0;0.0;0;0.0
09:46:06.371349;137;161141;137909;128417;136918;524159;524159;-0.399;-0.857;0.433;59.0;0.0;0;0.0
09:46:06.541437;138;161171;137889;128391;136900;524159;524159;-0.399;-0.855;0.433;59.0;0.0;0;0.0
09:46:06.551817;139;161177;137893;128353;136873;524159;524159;-0.398;-0.856;0.432;59.0;0.0;0;0.0
09:46:06.561774;140;161189;137872;128320;136860;524159;524159;-0.399;-0.857;0.434;59.0;0.0;0;0.0
09:46:06.566966;141;161211;137832;128260;136844;524159;524159;-0.398;-0.853;0.434;59.0;692.8;100;0.0
09:46:06.576501;142;161241;137791;128209;136829;524159;524159;-0.399;-0.855;0.432;59.0;0.0;0;0.0
09:46:06.741561;143;161270;137793;128197;136821;524159;524159;-0.400;-0.857;0.432;59.0;0.0;0;0.0
09:46:06.751673;144;161292;137823;128205;136814;524159;524159;-0.398;-0.858;0.435;59.0;0.0;0;0.0
09:46:06.751673;145;161280;137810;128196;136782;524159;524159;-0.398;-0.857;0.434;59.0;0.0;0;0.0
09:46:06.766770;146;161160;137763;128202;136659;524159;524159;-0.398;-0.855;0.433;59.0;0.0;0;0.0
09:46:06.771795;147;161037;137735;128204;136507;524159;524159;-0.398;-0.857;0.435;59.0;0.0;0;0.0
09:46:06.941825;148;160959;137719;128175;136379;524159;524159;-0.399;-0.859;0.431;59.0;0.0;0;0.0
09:46:06.951655;149;160882;137690;128150;136256;524159;524159;-0.399;-0.859;0.434;59.0;0.0;0;0.0
09:46:06.961459;150;160824;137659;128108;136160;524159;524159;-0.398;-0.859;0.435;59.0;0.0;0;0.0
09:46:06.966661;151;160739;137617;128059;136028;524159;524159;-0.398;-0.857;0.433;59.0;0.0;0;0.0
09:46:06.971716;152;160682;137587;128029;135936;524159;524159;-0.398;-0.856;0.431;59.0;0.0;0;0.0
09:46:07.146353;153;160630;137586;128024;135855;524159;524159;-0.398;-0.864;0.435;59.0;0.0;0;0.0
09:46:07.151455;154;160586;137579;128010;135788;524159;524159;-0.398;-0.857;0.434;59.0;0.0;0;0.0
09:46:07.161591;155;160562;137535;127943;135738;524159;524159;-0.398;-0.854;0.431;59.0;0.0;0;0.0
09:46:07.166964;156;160525;137517;127913;135671;524159;524159;-0.398;-0.861;0.432;59.0;0.0;0;0.0
09:46:07.171482;157;160505;137510;127889;135637;524159;524159;-0.399;-0.860;0.430;59.0;0.0;0;0.0
09:46:07.341712;158;160490;137490;127853;135603;524159;524159;-0.399;-0.859;0.433;59.0;671.6;100;0.0
09:46:07.351751;159;160478;137474;127824;135580;524159;524159;-0.398;-0.858;0.434;59.0;0.0;0;0.0
09:46:07.361624;160;160474;137455;127786;135557;524159;524159;-0.397;-0.857;0.433;59.0;0.0;0;0.0
09:46:07.366881;161;160478;137440;127768;135548;524159;524159;-0.398;-0.858;0.434;59.0;0.0;0;0.0
09:46:07.371409;162;160486;137437;127737;135530;524159;524159;-0.398;-0.861;0.435;59.0;0.0;0;0.0
09:46:07.541366;163;160498;137418;127698;135520;524159;524159;-0.398;-0.858;0.431;59.0;0.0;0;0.0
09:46:07.551527;164;160513;137393;127662;135528;524159;524159;-0.398;-0.862;0.431;61.0;0.0;0;0.0
09:46:07.561709;165;160538;137350;127626;135538;524159;524159;-0.399;-0.861;0.427;61.0;0.0;0;0.0
09:46:07.567037;166;160561;137312;127569;135547;524159;524159;-0.399;-0.857;0.432;61.0;0.0;0;0.0
09:46:07.571622;167;160576;137284;127511;135548;524159;524159;-0.398;-0.862;0.434;61.0;0.0;0;0.0
09:46:07.741358;168;160609;137239;127450;135561;524159;524159;-0.397;-0.860;0.430;61.0;0.0;0;0.0
09:46:07.751535;169;160629;137186;127396;135570;524159;524159;-0.398;-0.861;0.428;63.0;0.0;0;0.0
09:46:07.761368;170;160653;137174;127378;135578;524159;524159;-0.398;-0.861;0.431;63.0;0.0;0;0.0
09:46:07.766894;171;160681;137204;127401;135606;524159;524159;-0.397;-0.864;0.433;63.0;0.0;0;0.0
09:46:07.771444;172;160696;137190;127398;135625;524159;524159;-0.398;-0.864;0.428;63.0;0.0;0;0.0
09:46:07.951683;173;160621;137133;127391;135571;524159;524159;-0.399;-0.861;0.428;63.0;0.0;0;0.0
09:46:07.961752;174;160503;137112;127390;135483;524159;524159;-0.398;-0.856;0.426;65.0;0.0;0;0.0
09:46:07.966875;175;160430;137101;127419;135410;524159;524159;-0.398;-0.865;0.425;65.0;0.0;0;0.0
09:46:07.966875;176;160378;137113;127440;135353;524159;524159;-0.397;-0.865;0.426;65.0;730.8;100;0.0
09:46:07.971404;177;160328;137131;127471;135313;524159;524159;-0.397;-0.864;0.431;65.0;0.0;0;0.0
09:46:08.141745;178;160261;137139;127475;135271;524159;524159;-0.397;-0.864;0.429;65.0;0.0;0;0.0
09:46:08.156372;179;160225;137121;127448;135243;524159;524159;-0.397;-0.860;0.424;66.0;0.0;0;0.0
09:46:08.166720;180;160205;137124;127443;135234;524159;524159;-0.398;-0.868;0.427;66.0;0.0;0;0.0
09:46:08.171755;181;160180;137110;127432;135220;524159;524159;-0.398;-0.862;0.432;66.0;0.0;0;0.0
09:46:08.171755;182;160144;137072;127371;135207;524159;524159;-0.398;-0.856;0.427;66.0;0.0;0;0.0
09:46:08.341587;183;160147;137010;127299;135212;524159;524159;-0.399;-0.863;0.423;66.0;0.0;0;0.0
09:46:08.351511;184;160124;136989;127256;135197;524159;524159;-0.399;-0.866;0.427;68.0;0.0;0;0.0
09:46:08.361654;185;160125;136971;127211;135203;524159;524159;-0.398;-0.859;0.428;68.0;0.0;0;0.0
09:46:08.366859;186;160126;136943;127166;135209;524159;524159;-0.398;-0.862;0.429;68.0;0.0;0;0.0
09:46:08.371395;187;160135;136919;127131;135224;524159;524159;-0.398;-0.863;0.428;68.0;0.0;0;0.0
09:46:08.541575;188;160133;136912;127123;135232;524159;524159;-0.398;-0.863;0.427;68.0;0.0;0;0.0
09:46:08.551365;189;160147;136893;127085;135238;524159;524159;-0.398;-0.861;0.427;70.0;0.0;0;0.0
09:46:08.561580;190;160157;136854;127044;135264;524159;524159;-0.398;-0.858;0.426;70.0;0.0;0;0.0
09:46:08.566813;191;160165;136809;126978;135265;524159;524159;-0.399;-0.860;0.427;70.0;0.0;0;0.0
09:46:08.571344;192;160183;136777;126929;135276;524159;524159;-0.400;-0.860;0.428;70.0;0.0;0;0.0
09:46:08.751425;193;160213;136759;126908;135299;524159;524159;-0.399;-0.862;0.426;70.0;0.0;0;0.0
09:46:08.751425;194;160227;136741;126887;135298;524159;524159;-0.400;-0.863;0.423;71.0;0.0;0;0.0
09:46:08.771845;195;160256;136732;126885;135321;524159;524159;-0.400;-0.859;0.425;71.0;0.0;0;0.0
09:46:08.776353;196;160275;136767;126912;135342;524159;524159;-0.399;-0.864;0.427;71.0;0.0;0;0.0
09:46:08.776353;197;160297;136771;126917;135365;524159;524159;-0.400;-0.864;0.427;71.0;0.0;0;0.0
09:46:08.941612;198;160271;136747;126924;135356;524159;524159;-0.400;-0.858;0.428;71.0;0.0;0;0.0
09:46:08.956545;199;160172;136749;126969;135303;524159;524159;-0.399;-0.860;0.422;72.0;0.0;0;0.0
09:46:08.961587;200;160077;136746;126981;135248;524159;524159;-0.400;-0.863;0.421;72.0;0.0;0;0.0
09:46:08.967004;201;160026;136743;126976;135221;524159;524159;-0.400;-0.863;0.422;72.0;0.0;0;0.0
09:46:08.971534;202;159994;136736;126962;135211;524159;524159;-0.399;-0.859;0.427;72.0;0.0;0;0.0
09:46:09.141702;203;159953;136739;126961;135186;524159;524159;-0.399;-0.865;0.423;72.0;0.0;0;0.0
09:46:09.156500;204;159926;136729;126945;135178;524159;524159;-0.399;-0.862;0.425;74.0;0.0;0;0.0
09:46:09.161541;205;159895;136731;126934;135163;524159;524159;-0.399;-0.866;0.426;74.0;0.0;0;0.0
09:46:09.166967;206;159863;136712;126925;135161;524159;524159;-0.399;-0.858;0.427;53.0;1120.4;100;0.0
09:46:09.171481;207;159824;136663;126854;135152;524159;524159;-0.399;-0.858;0.420;53.0;0.0;0;0.0
09:46:09.346517;208;159810;136641;126805;135140;524159;524159;-0.399;-0.865;0.420;53.0;0.0;0;0.0
09:46:09.351549;209;159790;136637;126803;135135;524159;524159;-0.399;-0.865;0.421;53.0;0.0;0;0.0
09:46:09.361234;210;159785;136650;126798;135140;524159;524159;-0.399;-0.863;0.424;53.0;0.0;0;0.0
09:46:09.367264;211;159772;136642;126777;135138;524159;524159;-0.398;-0.870;0.423;53.0;0.0;0;0.0
09:46:09.371336;212;159779;136647;126775;135157;524159;524159;-0.398;-0.863;0.423;53.0;0.0;0;0.0
09:46:09.541397;213;159783;136659;126786;135170;524159;524159;-0.398;-0.864;0.423;53.0;0.0;0;0.0
09:46:09.551303;214;159774;136680;126790;135184;524159;524159;-0.398;-0.865;0.423;53.0;0.0;0;0.0
09:46:09.561650;215;159781;136683;126774;135212;524159;524159;-0.399;-0.867;0.423;53.0;0.0;0;0.0
09:46:09.571296;216;159795;136665;126761;135228;524159;524159;-0.398;-0.869;0.421;53.0;0.0;0;0.0
09:46:09.571296;217;159791;136647;126741;135231;524159;524159;-0.398;-0.864;0.422;53.0;0.0;0;0.0
09:46:09.741344;218;159830;136664;126737;135268;524159;524159;-0.398;-0.865;0.422;53.0;0.0;0;0.0
09:46:09.751427;219;159839;136681;126765;135291;524159;524159;-0.398;-0.861;0.421;53.0;0.0;0;0.0
09:46:09.761420;220;159874;136722;126788;135326;524159;524159;-0.398;-0.867;0.423;53.0;0.0;0;0.0
09:46:09.771513;221;159864;136718;126822;135333;524159;524159;-0.398;-0.868;0.418;53.0;0.0;0;0.0
09:46:09.771513;222;159756;136739;126886;135284;524159;524159;-0.397;-0.867;0.421;53.0;0.0;0;0.0
09:46:09.951546;223;159632;136789;126972;135221;524159;524159;-0.397;-0.858;0.420;53.0;0.0;0;0.0
09:46:09.961511;224;159575;136836;127032;135211;524159;524159;-0.397;-0.872;0.417;53.0;0.0;0;0.0
09:46:09.971704;225;159506;136861;127074;135192;524159;524159;-0.397;-0.870;0.420;53.0;0.0;0;0.0
09:46:09.976712;226;159434;136862;127083;135178;524159;524159;-0.397;-0.868;0.424;53.0;0.0;0;0.0
09:46:09.981253;227;159364;136844;127056;135170;524159;524159;-0.396;-0.866;0.422;53.0;0.0;0;0.0
09:46:10.141484;228;159308;136823;127035;135158;524159;524159;-0.398;-0.871;0.419;53.0;0.0;0;0.0
09:46:10.156658;229;159253;136830;127045;135151;524159;524159;-0.397;-0.873;0.422;53.0;0.0;0;0.0
09:46:10.161696;230;159199;136786;126983;135156;524159;524159;-0.397;-0.864;0.422;53.0;0.0;0;0.0
09:46:10.171517;231;159156;136725;126894;135156;524159;524159;-0.399;-0.869;0.418;53.0;642.8;25;0.0
09:46:10.181575;232;159112;136688;126843;135148;524159;524159;-0.398;-0.872;0.417;53.0;0.0;0;0.0
09:46:10.341506;233;159083;136683;126811;135143;524159;524159;-0.397;-0.868;0.420;53.0;0.0;0;0.0
09:46:10.356654;234;159038;136661;126767;135129;524159;524159;-0.397;-0.866;0.420;53.0;0.0;0;0.0
09:46:10.361698;235;159033;136645;126744;135143;524159;524159;-0.397;-0.871;0.418;53.0;0.0;0;0.0
09:46:10.371741;236;159016;136653;126735;135140;524159;524159;-0.397;-0.871;0.419;52.0;0.0;0;0.0
09:46:10.371741;237;159004;136655;126741;135156;524159;524159;-0.398;-0.869;0.422;52.0;0.0;0;0.0
09:46:10.541663;238;158995;136665;126745;135169;524159;524159;-0.398;-0.868;0.418;52.0;0.0;0;0.0
09:46:10.551710;239;159002;136689;126762;135189;524159;524159;-0.398;-0.866;0.420;52.0;0.0;0;0.0
09:46:10.561312;240;159004;136702;126778;135210;524159;524159;-0.398;-0.867;0.420;52.0;0.0;0;0.0
09:46:10.571691;241;159026;136717;126789;135250;524159;524159;-0.397;-0.871;0.419;52.0;0.0;0;0.0
09:46:10.571691;242;159047;136725;126798;135287;524159;524159;-0.397;-0.869;0.419;52.0;0.0;0;0.0
09:46:10.751333;243;159062;136746;126813;135324;524159;524159;-0.397;-0.871;0.417;52.0;0.0;0;0.0
09:46:10.751333;244;159095;136767;126806;135365;524159;524159;-0.397;-0.866;0.419;52.0;0.0;0;0.0
09:46:10.766423;245;159126;136772;126823;135406;524159;524159;-0.397;-0.870;0.416;52.0;0.0;0;0.0
09:46:10.771502;246;159170;136756;126792;135448;524159;524159;-0.397;-0.871;0.416;52.0;0.0;0;0.0
09:46:10.771502;247;159206;136755;126780;135497;524159;524159;-0.397;-0.870;0.420;52.0;0.0;0;0.0
09:46:10.941403;248;159243;136760;126772;135532;524159;524159;-0.396;-0.874;0.421;52.0;0.0;0;0.0
09:46:10.951522;249;159209;136746;126805;135521;524159;524159;-0.397;-0.869;0.417;52.0;0.0;0;0.0
09:46:10.961368;250;159068;136783;126877;135461;524159;524159;-0.396;-0.869;0.417;52.0;0.0;0;0.0
09:46:10.971341;251;158958;136828;126954;135430;524159;524159;-0.397;-0.870;0.417;52.0;0.0;0;0.0
09:46:10.976345;252;158874;136858;127013;135411;524159;524159;-0.398;-0.875;0.411;52.0;0.0;0;0.0
09:46:11.151483;253;158780;136890;127053;135389;524159;524159;-0.396;-0.870;0.418;52.0;0.0;0;0.0
09:46:11.151483;254;158679;136886;127065;135365;524159;524159;-0.396;-0.872;0.417;52.0;0.0;0;0.0
09:46:11.161397;255;158588;136895;127071;135337;524159;524159;-0.396;-0.871;0.416;52.0;0.0;0;0.0
09:46:11.171399;256;158530;136908;127080;135328;524159;524159;-0.396;-0.872;0.417;52.0;0.0;0;0.0
09:46:11.181564;257;158463;136923;127119;135307;524159;524159;-0.397;-0.872;0.418;52.0;0.0;0;0.0
09:46:11.351728;258;158411;136916;127101;135316;524159;524159;-0.397;-0.867;0.416;52.0;1011.8;50;0.0
09:46:11.351728;259;158355;136898;127075;135308;524159;524159;-0.397;-0.871;0.414;52.0;0.0;0;0.0
09:46:11.361295;260;158313;136893;127055;135304;524159;524159;-0.398;-0.876;0.415;52.0;0.0;0;0.0
09:46:11.371638;261;158289;136892;127053;135317;524159;524159;-0.397;-0.872;0.417;52.0;0.0;0;0.0
09:46:11.371638;262;158259;136883;127025;135318;524159;524159;-0.396;-0.873;0.418;52.0;0.0;0;0.0
09:46:11.551741;263;158243;136873;127005;135329;524159;524159;-0.397;-0.873;0.414;52.0;0.0;0;0.0
09:46:11.561330;264;158228;136878;127010;135337;524159;524159;-0.397;-0.870;0.418;52.0;0.0;0;0.0
09:46:11.568805;265;158231;136889;127005;135370;524159;524159;-0.397;-0.871;0.416;52.0;0.0;0;0.0
09:46:11.571344;266;158225;136878;126996;135394;524159;524159;-0.397;-0.872;0.415;52.0;0.0;0;0.0
09:46:11.571344;267;158230;136871;126954;135413;524159;524159;-0.397;-0.871;0.415;52.0;0.0;0;0.0
09:46:11.751289;268;158236;136866;126948;135444;524159;524159;-0.397;-0.871;0.418;52.0;0.0;0;0.0
09:46:11.766560;269;158252;136859;126936;135457;524159;524159;-0.396;-0.871;0.417;52.0;0.0;0;0.0
09:46:11.771634;270;158274;136860;126920;135494;524159;524159;-0.397;-0.873;0.417;52.0;0.0;0;0.0
09:46:11.776639;271;158300;136868;126911;135536;524159;524159;-0.397;-0.873;0.417;52.0;0.0;0;0.0
09:46:11.776639;272;158327;136866;126899;135560;524159;524159;-0.397;-0.871;0.416;52.0;0.0;0;0.0
09:46:11.956615;273;158360;136864;126906;135597;524159;524159;-0.397;-0.870;0.416;52.0;0.0;0;0.0
09:46:11.961645;274;158400;136885;126906;135632;524159;524159;-0.396;-0.871;0.418;52.0;0.0;0;0.0
09:46:11.968670;275;158445;136894;126916;135675;524159;524159;-0.398;-0.872;0.415;52.0;0.0;0;0.0
09:46:11.971686;276;158494;136923;126925;135715;524159;524159;-0.397;-0.869;0.416;52.0;0.0;0;0.0
09:46:11.976690;277;158541;136953;126950;135762;524159;524159;-0.396;-0.875;0.419;52.0;0.0;0;0.0
09:46:12.151371;278;158575;136949;126949;135787;524159;524159;-0.397;-0.873;0.415;52.0;0.0;0;0.0
09:46:12.161436;279;158510;136950;127000;135766;524159;524159;-0.397;-0.872;0.416;52.0;0.0;0;0.0
09:46:12.169075;280;158385;136962;127058;135720;524159;524159;-0.396;-0.868;0.416;52.0;0.0;0;0.0
09:46:12.171603;281;158264;136998;127104;135671;524159;524159;-0.397;-0.876;0.411;52.0;944.0;100;0.0
09:46:12.171603;282;158176;137025;127139;135641;524159;524159;-0.397;-0.873;0.415;52.0;0.0;0;0.0
09:46:12.351747;283;158081;137027;127147;135612;524159;524159;-0.396;-0.870;0.417;52.0;0.0;0;0.0
09:46:12.351747;284;157978;136999;127125;135571;524159;524159;-0.396;-0.873;0.417;52.0;0.0;0;0.0
09:46:12.366383;285;157905;136999;127118;135547;524159;524159;-0.396;-0.870;0.416;52.0;0.0;0;0.0
09:46:12.371464;286;157823;137018;127135;135518;524159;524159;-0.397;-0.875;0.418;53.0;0.0;0;0.0
09:46:12.381633;287;157757;137029;127143;135499;524159;524159;-0.398;-0.875;0.416;53.0;0.0;0;0.0
09:46:12.551433;288;157701;137016;127132;135491;524159;524159;-0.397;-0.865;0.415;53.0;0.0;0;0.0
09:46:12.556440;289;157647;136999;127087;135476;524159;524159;-0.397;-0.872;0.411;53.0;0.0;0;0.0
09:46:12.571593;290;157620;137003;127087;135479;524159;524159;-0.398;-0.875;0.416;53.0;0.0;0;0.0
09:46:12.581744;291;157587;136997;127060;135482;524159;524159;-0.397;-0.872;0.419;55.0;0.0;0;0.0
09:46:12.581744;292;157572;136969;127019;135489;524159;524159;-0.397;-0.873;0.416;55.0;0.0;0;0.0
09:46:12.751653;293;157564;136960;126989;135496;524159;524159;-0.397;-0.874;0.414;55.0;0.0;0;0.0
09:46:12.756660;294;157563;136950;126976;135515;524159;524159;-0.396;-0.871;0.419;55.0;0.0;0;0.0
09:46:12.761713;295;157567;136932;126947;135541;524159;524159;-0.396;-0.871;0.417;55.0;0.0;0;0.0
09:46:12.771387;296;157563;136914;126918;135550;524159;524159;-0.397;-0.874;0.411;56.0;0.0;0;0.0
09:46:12.771387;297;157575;136902;126890;135569;524159;524159;-0.397;-0.872;0.417;56.0;0.0;0;0.0
09:46:12.951690;298;157600;136890;126871;135591;524159;524159;-0.397;-0.872;0.416;56.0;0.0;0;0.0
09:46:12.951690;299;157622;136887;126852;135618;524159;524159;-0.397;-0.872;0.415;56.0;0.0;0;0.0
09:46:12.961370;300;157651;136893;126840;135643;524159;524159;-0.397;-0.872;0.416;56.0;0.0;0;0.0
09:46:12.971577;301;157682;136907;126842;135665;524159;524159;-0.397;-0.873;0.414;58.0;0.0;0;0.0
09:46:12.971577;302;157730;136901;126837;135713;524159;524159;-0.397;-0.872;0.413;58.0;0.0;0;0.0
09:46:13.151452;303;157777;136900;126826;135755;524159;524159;-0.396;-0.873;0.416;58.0;0.0;0;0.0
09:46:13.161536;304;157819;136882;126796;135797;524159;524159;-0.397;-0.874;0.415;58.0;0.0;0;0.0
09:46:13.166542;305;157876;136879;126784;135832;524159;524159;-0.397;-0.872;0.416;58.0;0.0;0;0.0
09:46:13.176604;306;157925;136898;126785;135868;524159;524159;-0.396;-0.868;0.415;59.0;0.0;0;0.0
09:46:13.181643;307;157987;136925;126806;135927;524159;524159;-0.396;-0.872;0.416;59.0;0.0;0;0.0
09:46:13.351506;308;158048;136915;126810;135976;524159;524159;-0.397;-0.873;0.415;59.0;0.0;0;0.0
09:46:13.356515;309;158017;136926;126841;135972;524159;524159;-0.397;-0.872;0.416;59.0;1118.9;100;0.0
09:46:13.366584;310;157897;136929;126890;135913;524159;524159;-0.396;-0.869;0.418;59.0;0.0;0;0.0
09:46:13.371613;311;157798;136938;126906;135864;524159;524159;-0.396;-0.872;0.414;60.0;0.0;0;0.0
09:46:13.381524;312;157726;136953;126933;135834;524159;524159;-0.397;-0.874;0.415;60.0;0.0;0;0.0
09:46:13.551454;313;157664;136946;126927;135817;524159;524159;-0.396;-0.870;0.416;60.0;0.0;0;0.0
09:46:13.556461;314;157585;136915;126894;135792;524159;524159;-0.396;-0.873;0.416;60.0;0.0;0;0.0
09:46:13.566508;315;157507;136904;126887;135762;524159;524159;-0.396;-0.871;0.415;60.0;0.0;0;0.0
09:46:13.571641;316;157453;136904;126878;135739;524159;524159;-0.396;-0.876;0.418;60.0;0.0;0;0.0
09:46:13.581720;317;157407;136895;126856;135728;524159;524159;-0.397;-0.872;0.416;60.0;0.0;0;0.0
09:46:13.751479;318;157371;136864;126827;135723;524159;524159;-0.396;-0.868;0.416;60.0;0.0;0;0.0
09:46:13.756485;319;157326;136840;126782;135701;524159;524159;-0.397;-0.872;0.414;60.0;0.0;0;0.0
09:46:13.761522;320;157297;136829;126755;135698;524159;524159;-0.397;-0.871;0.416;60.0;0.0;0;0.0
09:46:13.776378;321;157287;136828;126741;135705;524159;524159;-0.396;-0.873;0.417;60.0;0.0;0;0.0
09:46:13.781438;322;157281;136815;126713;135720;524159;524159;-0.396;-0.873;0.416;60.0;0.0;0;0.0
09:46:13.951395;323;157282;136802;126695;135724;524159;524159;-0.395;-0.871;0.417;60.0;0.0;0;0.0
09:46:13.961472;324;157281;136797;126673;135734;524159;524159;-0.396;-0.870;0.417;60.0;0.0;0;0.0
09:46:13.966480;325;157303;136794;126658;135757;524159;524159;-0.396;-0.871;0.415;60.0;0.0;0;0.0
09:46:13.971526;326;157314;136782;126642;135772;524159;524159;-0.396;-0.871;0.417;60.0;0.0;0;0.0
09:46:13.981674;327;157345;136777;126627;135794;524159;524159;-0.397;-0.871;0.417;60.0;0.0;0;0.0
09:46:14.151371;328;157377;136772;126605;135824;524159;524159;-0.397;-0.873;0.416;60.0;0.0;0;0.0
09:46:14.161438;329;157413;136766;126581;135860;524159;524159;-0.397;-0.875;0.415;60.0;0.0;0;0.0
09:46:14.181663;330;157449;136762;126558;135887;524159;524159;-0.397;-0.872;0.415;60.0;0.0;0;0.0
09:46:14.181663;331;157492;136744;126541;135922;524159;524159;-0.396;-0.872;0.416;60.0;0.0;0;0.0
09:46:14.191574;332;157555;136749;126532;135977;524159;524159;-0.397;-0.874;0.416;60.0;0.0;0;0.0
09:46:14.351381;333;157622;136737;126509;136026;524159;524159;-0.397;-0.871;0.415;60.0;0.0;0;0.0
09:46:14.361302;334;157659;136727;126485;136056;524159;524159;-0.397;-0.874;0.415;60.0;0.0;0;0.0
09:46:14.371568;335;157722;136731;126467;136108;524159;524159;-0.397;-0.871;0.416;60.0;0.0;0;0.0
09:46:14.386485;336;157788;136742;126458;136154;524159;524159;-0.397;-0.872;0.416;61.0;0.0;0;0.0
09:46:14.386485;337;157843;136724;126464;136186;524159;524159;-0.396;-0.869;0.411;61.0;0.0;0;0.0
09:46:14.551497;338;157909;136762;126501;136243;524159;524159;-0.397;-0.872;0.416;61.0;0.0;0;0.0
09:46:14.551497;339;157966;136776;126496;136289;524159;524159;-0.397;-0.875;0.418;61.0;1192.3;100;0.0
09:46:14.566557;340;157954;136775;126524;136296;524159;524159;-0.397;-0.874;0.416;61.0;0.0;0;0.0
09:46:14.571590;341;157866;136775;126574;136256;524159;524159;-0.396;-0.868;0.419;63.0;0.0;0;0.0
09:46:14.581615;342;157782;136794;126596;136212;524159;524159;-0.397;-0.875;0.414;63.0;0.0;0;0.0
09:46:14.751266;343;157740;136809;126606;136192;524159;524159;-0.397;-0.873;0.415;63.0;0.0;0;0.0
09:46:14.761371;344;157697;136793;126603;136183;524159;524159;-0.397;-0.870;0.417;63.0;0.0;0;0.0
09:46:14.766378;345;157643;136769;126570;136160;524159;524159;-0.397;-0.873;0.416;63.0;0.0;0;0.0
09:46:14.771438;346;157600;136763;126539;136151;524159;524159;-0.396;-0.868;0.419;65.0;0.0;0;0.0
09:46:14.781356;347;157566;136751;126535;136129;524159;524159;-0.396;-0.876;0.421;65.0;0.0;0;0.0
09:46:14.951420;348;157541;136737;126507;136128;524159;524159;-0.397;-0.875;0.421;65.0;0.0;0;0.0
09:46:14.951420;349;157517;136680;126444;136141;524159;524159;-0.397;-0.862;0.413;65.0;0.0;0;0.0
09:46:14.961528;350;157509;136581;126323;136141;524159;524159;-0.396;-0.864;0.416;65.0;0.0;0;0.0
09:46:14.971477;351;157520;136465;126181;136154;524159;524159;-0.397;-0.866;0.413;68.0;0.0;0;0.0
09:46:14.981617;352;157513;136335;126043;136127;524159;524159;-0.398;-0.869;0.410;68.0;0.0;0;0.0
09:46:15.156349;353;157532;136178;125898;136108;524159;524159;-0.398;-0.873;0.419;68.0;0.0;0;0.0
09:46:15.166400;354;157539;136054;125759;136076;524159;524159;-0.400;-0.869;0.417;68.0;0.0;0;0.0
09:46:15.169432;355;157535;135914;125638;136007;524159;524159;-0.398;-0.870;0.410;68.0;0.0;0;0.0
09:46:15.171448;356;157522;135809;125588;135917;524159;524159;-0.400;-0.872;0.402;70.0;0.0;0;0.0
09:46:15.181441;357;157530;135749;125575;135863;524159;524159;-0.400;-0.868;0.406;70.0;0.0;0;0.0
09:46:15.351331;358;157527;135700;125560;135815;524159;524159;-0.402;-0.871;0.402;70.0;0.0;0;0.0
09:46:15.361301;359;157538;135672;125560;135772;524159;524159;-0.403;-0.869;0.397;70.0;0.0;0;0.0
09:46:15.361301;360;157563;135639;125535;135762;524159;524159;-0.401;-0.870;0.397;70.0;0.0;0;0.0
09:46:15.371514;361;157586;135580;125473;135766;524159;524159;-0.400;-0.870;0.401;71.0;0.0;0;0.0
09:46:15.381563;362;157618;135519;125391;135769;524159;524159;-0.400;-0.877;0.409;71.0;0.0;0;0.0
09:46:15.551524;363;157639;135491;125360;135760;524159;524159;-0.400;-0.875;0.398;71.0;0.0;0;0.0
09:46:15.561248;364;157661;135470;125318;135747;524159;524159;-0.400;-0.874;0.394;71.0;0.0;0;0.0
09:46:15.569454;365;157693;135423;125275;135753;524159;524159;-0.403;-0.876;0.389;71.0;0.0;0;0.0
09:46:15.571490;366;157737;135414;125242;135754;524159;524159;-0.406;-0.879;0.386;71.0;0.0;0;0.0
09:46:15.581353;367;157763;135395;125243;135749;524159;524159;-0.406;-0.877;0.387;71.0;0.0;0;0.0
09:46:15.751637;368;157730;135424;125294;135720;524159;524159;-0.401;-0.876;0.389;71.0;0.0;0;0.0
09:46:15.761180;369;157635;135494;125401;135650;524159;524159;-0.398;-0.881;0.393;71.0;0.0;0;0.0
09:46:15.766188;370;157577;135582;125499;135603;524159;524159;-0.400;-0.881;0.392;71.0;1202.9;100;0.0
09:46:15.771237;371;157558;135708;125629;135582;524159;524159;-0.400;-0.880;0.395;70.0;0.0;0;0.0
09:46:15.781204;372;157562;135799;125739;135584;524159;524159;-0.398;-0.878;0.396;70.0;0.0;0;0.0
09:46:15.951628;373;157579;135845;125791;135601;524159;524159;-0.400;-0.875;0.395;70.0;0.0;0;0.0
09:46:15.961420;374;157590;135877;125832;135607;524159;524159;-0.400;-0.879;0.395;70.0;0.0;0;0.0
09:46:15.969898;375;157586;135909;125868;135622;524159;524159;-0.400;-0.879;0.400;70.0;0.0;0;0.0
09:46:15.971445;376;157586;135898;125850;135632;524159;524159;-0.401;-0.874;0.398;70.0;0.0;0;0.0
09:46:15.981347;377;157591;135883;125810;135649;524159;524159;-0.402;-0.876;0.394;70.0;0.0;0;0.0
09:46:16.151618;378;157619;135883;125783;135697;524159;524159;-0.400;-0.877;0.396;70.0;0.0;0;0.0
09:46:16.161644;379;157665;135849;125674;135757;524159;524159;-0.399;-0.874;0.397;70.0;0.0;0;0.0
09:46:16.161644;380;157690;135769;125540;135796;524159;524159;-0.401;-0.875;0.397;70.0;0.0;0;0.0
09:46:16.171167;381;157737;135731;125468;135829;524159;524159;-0.400;-0.875;0.399;69.0;0.0;0;0.0
09:46:16.181200;382;157779;135723;125424;135871;524159;524159;-0.399;-0.875;0.398;69.0;0.0;0;0.0
09:46:16.351608;383;157825;135713;125367;135907;524159;524159;-0.399;-0.878;0.399;69.0;0.0;0;0.0
09:46:16.361318;384;157870;135652;125285;135939;524159;524159;-0.400;-0.875;0.401;69.0;0.0;0;0.0
09:46:16.371402;385;157916;135623;125239;135959;524159;524159;-0.402;-0.873;0.397;69.0;0.0;0;0.0
09:46:16.381478;386;157965;135628;125214;135999;524159;524159;-0.402;-0.868;0.399;69.0;0.0;0;0.0
09:46:16.391548;387;158029;135634;125179;136064;524159;524159;-0.401;-0.876;0.403;69.0;0.0;0;0.0
09:46:16.551340;388;158064;135559;125076;136097;524159;524159;-0.403;-0.873;0.397;69.0;0.0;0;0.0
09:46:16.561347;389;158019;135524;125067;136075;524159;524159;-0.403;-0.877;0.398;69.0;0.0;0;0.0
09:46:16.571447;390;157920;135543;125081;136031;524159;524159;-0.398;-0.871;0.402;69.0;0.0;0;0.0
09:46:16.576454;391;157845;135543;125076;135994;524159;524159;-0.398;-0.873;0.399;69.0;0.0;0;0.0
09:46:16.581491;392;157778;135535;125051;135948;524159;524159;-0.400;-0.878;0.398;69.0;0.0;0;0.0
09:46:16.756459;393;157727;135503;125016;135934;524159;524159;-0.400;-0.875;0.404;69.0;0.0;0;0.0
09:46:16.761490;394;157670;135449;124952;135893;524159;524159;-0.399;-0.872;0.399;69.0;0.0;0;0.0
09:46:16.769403;395;157618;135382;124879;135857;524159;524159;-0.400;-0.874;0.396;69.0;0.0;0;0.0
09:46:16.771422;396;157568;135355;124866;135821;524159;524159;-0.400;-0.877;0.397;68.0;0.0;0;0.0
09:46:16.781445;397;157530;135341;124843;135804;524159;524159;-0.401;-0.873;0.401;68.0;0.0;0;0.0
09:46:16.951327;398;157476;135314;124817;135764;524159;524159;-0.401;-0.874;0.396;68.0;0.0;0;0.0
09:46:16.961344;399;157444;135309;124822;135742;524159;524159;-0.401;-0.876;0.395;68.0;0.0;0;0.0
09:46:16.971411;400;157423;135346;124854;135734;524159;524159;-0.400;-0.876;0.400;68.0;1232.7;100;0.0
09:46:16.971411;401;157422;135371;124878;135749;524159;524159;-0.400;-0.875;0.400;68.0;0.0;0;0.0
09:46:16.981315;402;157419;135393;124896;135761;524159;524159;-0.399;-0.876;0.398;68.0;0.0;0;0.0
09:46:17.156198;403;157420;135395;124902;135776;524159;524159;-0.399;-0.876;0.396;68.0;0.0;0;0.0
09:46:17.161247;404;157425;135407;124923;135778;524159;524159;-0.400;-0.876;0.396;68.0;0.0;0;0.0
09:46:17.171530;405;157445;135437;124953;135791;524159;524159;-0.400;-0.873;0.395;68.0;0.0;0;0.0
09:46:17.176539;406;157462;135466;124997;135819;524159;524159;-0.400;-0.877;0.400;68.0;0.0;0;0.0
09:46:17.181595;407;157485;135501;125029;135850;524159;524159;-0.400;-0.878;0.399;68.0;0.0;0;0.0
09:46:17.351294;408;157472;135517;125082;135838;524159;524159;-0.400;-0.876;0.396;68.0;0.0;0;0.0
09:46:17.361310;409;157371;135549;125174;135791;524159;524159;-0.398;-0.875;0.399;68.0;0.0;0;0.0
09:46:17.361310;410;157243;135601;125255;135731;524159;524159;-0.398;-0.875;0.400;68.0;0.0;0;0.0
09:46:17.371592;411;157153;135618;125307;135685;524159;524159;-0.399;-0.878;0.394;67.0;0.0;0;0.0
09:46:17.381366;412;157047;135661;125343;135647;524159;524159;-0.399;-0.878;0.396;67.0;0.0;0;0.0
09:46:17.551449;413;156937;135668;125375;135606;524159;524159;-0.398;-0.877;0.398;67.0;0.0;0;0.0
09:46:17.561668;414;156856;135671;125357;135585;524159;524159;-0.398;-0.875;0.400;67.0;0.0;0;0.0
09:46:17.571327;415;156781;135673;125350;135564;524159;524159;-0.399;-0.877;0.396;67.0;0.0;0;0.0
09:46:17.581661;416;156712;135699;125365;135548;524159;524159;-0.399;-0.879;0.399;67.0;0.0;0;0.0
09:46:17.596240;417;156617;135713;125354;135540;524159;524159;-0.399;-0.871;0.402;67.0;0.0;0;0.0
09:46:17.751634;418;156533;135697;125325;135535;524159;524159;-0.399;-0.876;0.401;67.0;0.0;0;0.0
09:46:17.761385;419;156492;135682;125281;135529;524159;524159;-0.399;-0.879;0.402;67.0;0.0;0;0.0
09:46:17.771346;420;156476;135678;125270;135542;524159;524159;-0.399;-0.876;0.399;67.0;0.0;0;0.0
09:46:17.776354;421;156484;135681;125247;135567;524159;524159;-0.399;-0.876;0.403;67.0;0.0;0;0.0
09:46:17.781424;422;156483;135672;125230;135588;524159;524159;-0.398;-0.878;0.404;67.0;0.0;0;0.0
09:46:17.956566;423;156495;135670;125207;135614;524159;524159;-0.399;-0.873;0.399;67.0;0.0;0;0.0
09:46:17.961608;424;156506;135692;125206;135633;524159;524159;-0.399;-0.874;0.402;67.0;0.0;0;0.0
09:46:17.970281;425;156516;135710;125203;135658;524159;524159;-0.399;-0.874;0.408;67.0;1093.0;100;0.0
09:46:17.971295;426;156539;135729;125227;135682;524159;524159;-0.398;-0.877;0.404;66.0;0.0;0;0.0
09:46:17.981555;427;156538;135719;125234;135695;524159;524159;-0.399;-0.875;0.403;66.0;0.0;0;0.0
09:46:18.156475;428;156414;135733;125283;135634;524159;524159;-0.398;-0.879;0.402;66.0;0.0;0;0.0
09:46:18.161509;429;156278;135759;125355;135562;524159;524159;-0.398;-0.877;0.402;66.0;0.0;0;0.0
09:46:18.170038;430;156166;135802;125400;135502;524159;524159;-0.398;-0.875;0.399;66.0;0.0;0;0.0
09:46:18.171570;431;156052;135823;125432;135448;524159;524159;-0.397;-0.879;0.398;66.0;0.0;0;0.0
09:46:18.181424;432;155936;135836;125450;135414;524159;524159;-0.397;-0.878;0.405;66.0;0.0;0;0.0
09:46:18.351497;433;155842;135832;125443;135379;524159;524159;-0.397;-0.876;0.405;66.0;0.0;0;0.0
09:46:18.361575;434;155777;135844;125433;135362;524159;524159;-0.396;-0.877;0.402;66.0;0.0;0;0.0
09:46:18.369980;435;155712;135848;125450;135348;524159;524159;-0.397;-0.879;0.404;66.0;0.0;0;0.0
09:46:18.371506;436;155654;135850;125445;135339;524159;524159;-0.397;-0.875;0.403;66.0;0.0;0;0.0
09:46:18.381530;437;155605;135820;125407;135338;524159;524159;-0.397;-0.876;0.401;66.0;0.0;0;0.0
09:46:18.551388;438;155567;135806;125383;135323;524159;524159;-0.398;-0.878;0.399;66.0;0.0;0;0.0
09:46:18.561460;439;155561;135811;125373;135340;524159;524159;-0.398;-0.878;0.401;66.0;0.0;0;0.0
09:46:18.570097;440;155556;135807;125366;135361;524159;524159;-0.398;-0.878;0.401;66.0;0.0;0;0.0
09:46:18.571646;441;155551;135824;125355;135382;524159;524159;-0.397;-0.877;0.402;65.0;0.0;0;0.0
09:46:18.581581;442;155558;135832;125375;135402;524159;524159;-0.397;-0.877;0.402;65.0;0.0;0;0.0
09:46:18.751318;443;155575;135836;125357;135443;524159;524159;-0.396;-0.878;0.404;65.0;0.0;0;0.0
09:46:18.761560;444;155602;135838;125348;135473;524159;524159;-0.397;-0.878;0.401;65.0;0.0;0;0.0
09:46:18.771458;445;155637;135842;125325;135510;524159;524159;-0.397;-0.876;0.406;65.0;0.0;0;0.0
09:46:18.771458;446;155683;135835;125311;135553;524159;524159;-0.397;-0.877;0.401;65.0;0.0;0;0.0
09:46:18.781272;447;155728;135830;125295;135596;524159;524159;-0.397;-0.878;0.405;65.0;0.0;0;0.0
09:46:18.951286;448;155780;135822;125297;135639;524159;524159;-0.397;-0.875;0.402;65.0;0.0;0;0.0
09:46:18.961482;449;155822;135832;125289;135669;524159;524159;-0.398;-0.878;0.402;65.0;860.1;100;0.0
09:46:18.971395;450;155883;135859;125301;135727;524159;524159;-0.397;-0.878;0.402;65.0;0.0;0;0.0
09:46:18.976405;451;155943;135866;125308;135778;524159;524159;-0.398;-0.878;0.400;65.0;0.0;0;0.0
09:46:18.981443;452;156012;135883;125318;135831;524159;524159;-0.397;-0.877;0.402;65.0;0.0;0;0.0
09:46:19.151354;453;156089;135906;125316;135899;524159;524159;-0.397;-0.877;0.403;65.0;0.0;0;0.0
09:46:19.161326;454;156150;135923;125319;135952;524159;524159;-0.396;-0.877;0.402;65.0;0.0;0;0.0
09:46:19.171288;455;156234;135918;125323;136022;524159;524159;-0.397;-0.878;0.401;65.0;0.0;0;0.0
09:46:19.176293;456;156312;135917;125312;136075;524159;524159;-0.397;-0.878;0.401;64.0;0.0;0;0.0
09:46:19.181347;457;156398;135951;125327;136141;524159;524159;-0.397;-0.875;0.400;64.0;0.0;0;0.0
09:46:19.351600;458;156482;135972;125358;136215;524159;524159;-0.396;-0.881;0.403;64.0;0.0;0;0.0
09:46:19.361662;459;156544;135981;125369;136259;524159;524159;-0.396;-0.878;0.405;64.0;0.0;0;0.0
09:46:19.361662;460;156498;135978;125432;136246;524159;524159;-0.397;-0.878;0.402;64.0;0.0;0;0.0
09:46:19.371208;461;156402;136002;125483;136201;524159;524159;-0.397;-0.876;0.401;64.0;0.0;0;0.0
09:46:19.381361;462;156334;136030;125522;136159;524159;524159;-0.398;-0.878;0.399;64.0;0.0;0;0.0
09:46:19.551380;463;156309;136052;125557;136145;524159;524159;-0.398;-0.880;0.400;64.0;0.0;0;0.0
09:46:19.561535;464;156274;136054;125554;136150;524159;524159;-0.396;-0.877;0.403;64.0;0.0;0;0.0
09:46:19.571638;465;156210;136026;125547;136136;524159;524159;-0.397;-0.878;0.403;64.0;0.0;0;0.0
09:46:19.576646;466;156163;136024;125520;136117;524159;524159;-0.396;-0.876;0.403;64.0;0.0;0;0.0
09:46:19.581676;467;156148;136033;125528;136124;524159;524159;-0.396;-0.880;0.405;64.0;0.0;0;0.0
09:46:19.751548;468;156129;136039;125524;136130;524159;524159;-0.396;-0.878;0.406;64.0;810.7;100;0.0
09:46:19.761580;469;156125;136016;125490;136136;524159;524159;-0.396;-0.875;0.403;64.0;0.0;0;0.0
09:46:19.771336;470;156130;135991;125457;136146;524159;524159;-0.397;-0.876;0.400;64.0;0.0;0;0.0
09:46:19.771336;471;156140;135984;125436;136156;524159;524159;-0.397;-0.878;0.402;64.0;0.0;0;0.0
09:46:19.781540;472;156162;135973;125420;136193;524159;524159;-0.396;-0.878;0.401;64.0;0.0;0;0.0
09:46:19.951561;473;156187;135965;125394;136214;524159;524159;-0.396;-0.880;0.401;64.0;0.0;0;0.0
09:46:19.961256;474;156210;135961;125368;136236;524159;524159;-0.395;-0.875;0.400;64.0;0.0;0;0.0
09:46:19.971566;475;156241;135953;125350;136268;524159;524159;-0.397;-0.877;0.402;64.0;0.0;0;0.0
09:46:19.976572;476;156293;135931;125319;136310;524159;524159;-0.397;-0.877;0.404;63.0;0.0;0;0.0
09:46:19.981601;477;156331;135909;125278;136348;524159;524159;-0.397;-0.878;0.402;63.0;0.0;0;0.0
09:46:20.161428;478;156384;135901;125251;136384;524159;524159;-0.397;-0.879;0.400;63.0;0.0;0;0.0
09:46:20.172368;479;156438;135890;125226;136425;524159;524159;-0.397;-0.879;0.404;63.0;0.0;0;0.0
09:46:20.176376;480;156505;135891;125202;136469;524159;524159;-0.396;-0.877;0.401;63.0;0.0;0;0.0
09:46:20.176376;481;156562;135887;125197;136509;524159;524159;-0.396;-0.877;0.402;63.0;0.0;0;0.0
09:46:20.181429;482;156626;135890;125179;136555;524159;524159;-0.397;-0.880;0.402;63.0;0.0;0;0.0
09:46:20.351279;483;156720;135894;125181;136625;524159;524159;-0.396;-0.878;0.402;63.0;0.0;0;0.0
09:46:20.361221;484;156786;135914;125184;136671;524159;524159;-0.396;-0.879;0.402;63.0;0.0;0;0.0
09:46:20.372838;485;156864;135922;125172;136724;524159;524159;-0.396;-0.877;0.402;63.0;0.0;0;0.0
09:46:20.372838;486;156961;135923;125176;136789;524159;524159;-0.397;-0.879;0.403;63.0;0.0;0;0.0
09:46:20.381375;487;157055;135918;125159;136853;524159;524159;-0.397;-0.876;0.404;63.0;754.9;100;0.0
09:46:20.551394;488;157150;135921;125140;136911;524159;524159;-0.396;-0.880;0.405;63.0;0.0;0;0.0
09:46:20.566472;489;157233;135927;125134;136956;524159;524159;-0.396;-0.881;0.402;63.0;0.0;0;0.0
09:46:20.573094;490;157233;135912;125158;136949;524159;524159;-0.396;-0.878;0.406;63.0;0.0;0;0.0
09:46:20.586651;491;157169;135910;125181;136912;524159;524159;-0.395;-0.874;0.402;63.0;0.0;0;0.0
09:46:20.591219;492;157136;135917;125189;136867;524159;524159;-0.397;-0.880;0.398;63.0;0.0;0;0.0
09:46:20.751473;493;157138;135929;125196;136854;524159;524159;-0.396;-0.879;0.402;63.0;0.0;0;0.0
09:46:20.761368;494;157137;135903;125161;136845;524159;524159;-0.396;-0.876;0.404;63.0;0.0;0;0.0
09:46:20.773270;495;157133;135866;125112;136823;524159;524159;-0.397;-0.880;0.401;63.0;0.0;0;0.0
09:46:20.773270;496;157137;135833;125073;136814;524159;524159;-0.396;-0.877;0.401;63.0;0.0;0;0.0
09:46:20.781340;497;157155;135820;125046;136806;524159;524159;-0.396;-0.881;0.402;63.0;0.0;0;0.0
09:46:20.951279;498;157159;135815;125025;136784;524159;524159;-0.396;-0.878;0.404;63.0;0.0;0;0.0
09:46:20.961616;499;157172;135773;124970;136785;524159;524159;-0.397;-0.876;0.400;63.0;0.0;0;0.0
09:46:20.971262;500;157213;135738;124910;136781;524159;524159;-0.397;-0.878;0.400;63.0;0.0;0;0.0
09:46:20.973284;501;157250;135713;124877;136790;524159;524159;-0.397;-0.879;0.402;62.0;0.0;0;0.0
09:46:20.986413;502;157292;135715;124846;136793;524159;524159;-0.396;-0.880;0.400;62.0;0.0;0;0.0
09:46:21.151215;503;157330;135690;124810;136806;524159;524159;-0.396;-0.879;0.399;62.0;0.0;0;0.0
09:46:21.161347;504;157380;135673;124782;136809;524159;524159;-0.396;-0.877;0.400;62.0;0.0;0;0.0
09:46:21.173453;505;157432;135679;124775;136832;524159;524159;-0.396;-0.879;0.402;62.0;0.0;0;0.0
09:46:21.181495;506;157491;135672;124763;136847;524159;524159;-0.397;-0.878;0.401;62.0;0.0;0;0.0
09:46:21.181495;507;157566;135671;124751;136876;524159;524159;-0.397;-0.878;0.401;62.0;0.0;0;0.0
09:46:21.351377;508;157629;135670;124728;136900;524159;524159;-0.397;-0.879;0.403;62.0;0.0;0;0.0
09:46:21.361258;509;157696;135666;124720;136928;524159;524159;-0.397;-0.878;0.400;62.0;0.0;0;0.0
09:46:21.373872;510;157775;135684;124735;136963;524159;524159;-0.396;-0.878;0.403;62.0;0.0;0;0.0
09:46:21.373872;511;157846;135719;124758;136999;524159;524159;-0.396;-0.879;0.402;62.0;0.0;0;0.0
09:46:21.381409;512;157924;135736;124781;137039;524159;524159;-0.397;-0.877;0.399;62.0;0.0;0;0.0
09:46:21.556194;513;158010;135768;124805;137099;524159;524159;-0.397;-0.880;0.403;62.0;0.0;0;0.0
09:46:21.561233;514;158094;135788;124814;137156;524159;524159;-0.396;-0.879;0.400;62.0;0.0;0;0.0
09:46:21.571238;515;158199;135801;124816;137223;524159;524159;-0.397;-0.879;0.400;62.0;0.0;0;0.0
09:46:21.573770;516;158282;135830;124852;137274;524159;524159;-0.396;-0.877;0.399;62.0;0.0;0;0.0
09:46:21.581304;517;158373;135855;124869;137338;524159;524159;-0.395;-0.879;0.404;62.0;0.0;0;0.0
09:46:21.751577;518;158467;135855;124878;137396;524159;524159;-0.397;-0.879;0.402;62.0;0.0;0;0.0
09:46:21.761507;519;158484;135866;124927;137410;524159;524159;-0.397;-0.879;0.402;62.0;0.0;0;0.0
09:46:21.781362;520;158425;135896;124987;137369;524159;524159;-0.396;-0.875;0.403;62.0;1257.5;100;0.0
09:46:21.791576;521;158411;135915;125033;137337;524159;524159;-0.396;-0.880;0.398;63.0;0.0;0;0.0
09:46:21.796585;522;158427;135938;125048;137328;524159;524159;-0.397;-0.882;0.399;63.0;0.0;0;0.0
09:46:21.951488;523;158458;135941;125042;137328;524159;524159;-0.396;-0.875;0.403;63.0;0.0;0;0.0
09:46:21.961469;524;158459;135912;125022;137312;524159;524159;-0.395;-0.877;0.402;63.0;0.0;0;0.0
09:46:21.973849;525;158473;135927;125015;137300;524159;524159;-0.396;-0.877;0.404;63.0;0.0;0;0.0
09:46:21.981387;526;158504;135929;125013;137292;524159;524159;-0.397;-0.881;0.401;63.0;0.0;0;0.0
09:46:21.981387;527;158530;135922;125001;137282;524159;524159;-0.397;-0.879;0.404;63.0;0.0;0;0.0
09:46:22.151272;528;158558;135912;124983;137281;524159;524159;-0.396;-0.876;0.403;63.0;0.0;0;0.0
09:46:22.161334;529;158594;135884;124954;137283;524159;524159;-0.397;-0.879;0.397;63.0;0.0;0;0.0
09:46:22.174312;530;158628;135881;124933;137283;524159;524159;-0.397;-0.879;0.401;63.0;0.0;0;0.0
09:46:22.181359;531;158677;135870;124905;137302;524159;524159;-0.395;-0.879;0.399;63.0;0.0;0;0.0
09:46:22.191235;532;158721;135841;124851;137310;524159;524159;-0.396;-0.879;0.399;63.0;0.0;0;0.0
09:46:22.351522;533;158765;135828;124822;137321;524159;524159;-0.396;-0.878;0.402;63.0;0.0;0;0.0
09:46:22.361324;534;158821;135817;124795;137341;524159;524159;-0.396;-0.878;0.403;63.0;0.0;0;0.0
09:46:22.371361;535;158866;135818;124791;137357;524159;524159;-0.397;-0.878;0.403;63.0;0.0;0;0.0
09:46:22.374905;536;158921;135820;124792;137383;524159;524159;-0.397;-0.878;0.401;63.0;0.0;0;0.0
09:46:22.381426;537;158987;135841;124795;137422;524159;524159;-0.396;-0.877;0.399;63.0;0.0;0;0.0
09:46:22.551612;538;159048;135843;124785;137455;524159;524159;-0.397;-0.878;0.397;63.0;0.0;0;0.0
09:46:22.561416;539;159123;135848;124785;137498;524159;524159;-0.396;-0.880;0.398;63.0;0.0;0;0.0
09:46:22.571226;540;159194;135852;124786;137537;524159;524159;-0.396;-0.879;0.399;63.0;0.0;0;0.0
09:46:22.574754;541;159254;135855;124768;137565;524159;524159;-0.397;-0.878;0.401;63.0;0.0;0;0.0
09:46:22.581283;542;159323;135865;124765;137615;524159;524159;-0.396;-0.879;0.402;63.0;0.0;0;0.0
09:46:22.751536;543;159400;135890;124769;137667;524159;524159;-0.397;-0.879;0.403;63.0;0.0;0;0.0
09:46:22.761211;544;159475;135899;124781;137713;524159;524159;-0.397;-0.876;0.399;63.0;0.0;0;0.0
09:46:22.771366;545;159558;135916;124786;137762;524159;524159;-0.397;-0.880;0.399;63.0;0.0;0;0.0
09:46:22.781424;546;159638;135934;124795;137811;524159;524159;-0.396;-0.877;0.401;64.0;0.0;0;0.0
09:46:22.791433;547;159720;135946;124815;137861;524159;524159;-0.396;-0.880;0.400;64.0;0.0;0;0.0
09:46:22.951505;548;159786;135954;124820;137908;524159;524159;-0.398;-0.881;0.401;64.0;0.0;0;0.0
09:46:22.961305;549;159751;135965;124873;137875;524159;524159;-0.396;-0.879;0.401;64.0;0.0;0;0.0
09:46:22.975105;550;159697;135976;124917;137826;524159;524159;-0.396;-0.876;0.399;64.0;1217.3;100;0.0
09:46:22.981638;551;159684;135999;124935;137784;524159;524159;-0.398;-0.883;0.398;64.0;0.0;0;0.0
09:46:22.981638;552;159689;136016;124952;137765;524159;524159;-0.396;-0.880;0.402;64.0;0.0;0;0.0
09:46:23.151486;553;159689;135997;124927;137737;524159;524159;-0.396;-0.877;0.402;64.0;0.0;0;0.0
09:46:23.175351;554;159702;135983;124912;137713;524159;524159;-0.395;-0.879;0.400;64.0;0.0;0;0.0
09:46:23.181393;555;159711;135983;124908;137695;524159;524159;-0.396;-0.878;0.401;64.0;0.0;0;0.0
09:46:23.181393;556;159726;135989;124910;137676;524159;524159;-0.397;-0.883;0.400;64.0;0.0;0;0.0
09:46:23.181393;557;159728;135986;124899;137652;524159;524159;-0.397;-0.879;0.401;64.0;0.0;0;0.0
09:46:23.351308;558;159739;135961;124857;137638;524159;524159;-0.397;-0.876;0.401;64.0;0.0;0;0.0
09:46:23.366387;559;159774;135937;124816;137640;524159;524159;-0.396;-0.879;0.397;64.0;0.0;0;0.0
09:46:23.375996;560;159794;135935;124794;137636;524159;524159;-0.396;-0.879;0.402;64.0;0.0;0;0.0
09:46:23.381562;561;159823;135914;124766;137646;524159;524159;-0.397;-0.879;0.402;64.0;0.0;0;0.0
09:46:23.391218;562;159860;135887;124718;137655;524159;524159;-0.397;-0.879;0.399;64.0;0.0;0;0.0
09:46:23.551583;563;159896;135867;124675;137679;524159;524159;-0.396;-0.878;0.400;64.0;0.0;0;0.0
09:46:23.561442;564;159936;135864;124673;137692;524159;524159;-0.396;-0.879;0.401;64.0;0.0;0;0.0
09:46:23.571506;565;159976;135867;124674;137715;524159;524159;-0.396;-0.876;0.399;64.0;0.0;0;0.0
09:46:23.576020;566;160015;135880;124682;137737;524159;524159;-0.396;-0.880;0.400;64.0;0.0;0;0.0
09:46:23.581547;567;160078;135907;124703;137770;524159;524159;-0.396;-0.880;0.399;64.0;0.0;0;0.0
09:46:23.761503;568;160135;135918;124721;137798;524159;524159;-0.396;-0.880;0.398;64.0;0.0;0;0.0
09:46:23.771354;569;160185;135944;124738;137833;524159;524159;-0.397;-0.881;0.397;64.0;0.0;0;0.0
09:46:23.776391;570;160260;135967;124782;137879;524159;524159;-0.396;-0.882;0.397;64.0;0.0;0;0.0
09:46:23.781422;571;160315;136006;124814;137910;524159;524159;-0.395;-0.880;0.395;64.0;0.0;0;0.0
09:46:23.781422;572;160385;136031;124850;137956;524159;524159;-0.396;-0.880;0.399;64.0;0.0;0;0.0
09:46:23.961309;573;160457;136049;124881;137997;524159;524159;-0.397;-0.880;0.395;64.0;0.0;0;0.0
09:46:23.971364;574;160525;136081;124937;138037;524159;524159;-0.397;-0.879;0.393;64.0;0.0;0;0.0
09:46:23.981479;575;160588;136146;125036;138073;524159;524159;-0.396;-0.882;0.394;64.0;0.0;0;0.0
09:46:23.986486;576;160669;136228;125138;138140;524159;524159;-0.396;-0.883;0.396;64.0;0.0;0;0.0
09:46:23.991517;577;160723;136274;125226;138172;524159;524159;-0.397;-0.882;0.395;64.0;0.0;0;0.0
09:46:23.991517;578;160698;136348;125366;138152;524159;524159;-0.397;-0.880;0.395;64.0;0.0;0;0.0
09:46:24.361597;579;160627;136433;125519;138096;524159;524159;-0.396;-0.881;0.395;64.0;0.0;0;0.0
09:46:24.371214;580;160601;136500;125641;138051;524159;524159;-0.397;-0.884;0.391;64.0;1163.9;100;0.0
09:46:24.377232;581;160609;136563;125742;138031;524159;524159;-0.397;-0.882;0.393;64.0;0.0;0;0.0
09:46:24.381249;582;160612;136589;125801;138013;524159;524159;-0.397;-0.882;0.396;64.0;0.0;0;0.0
09:46:24.391355;583;160611;136590;125828;138000;524159;524159;-0.395;-0.883;0.396;64.0;0.0;0;0.0
09:46:24.401371;584;160605;136580;125864;137970;524159;524159;-0.396;-0.880;0.394;64.0;0.0;0;0.0
09:46:24.406376;585;160611;136610;125926;137952;524159;524159;-0.397;-0.885;0.391;64.0;0.0;0;0.0
09:46:24.411416;586;160592;136639;125994;137924;524159;524159;-0.398;-0.882;0.395;64.0;0.0;0;0.0
09:46:24.421449;587;160580;136640;126027;137896;524159;524159;-0.399;-0.880;0.390;64.0;0.0;0;0.0
09:46:24.421449;588;160568;136656;126079;137859;524159;524159;-0.398;-0.882;0.386;64.0;0.0;0;0.0
09:46:24.766535;589;160592;136688;126144;137877;524159;524159;-0.399;-0.881;0.387;64.0;0.0;0;0.0
09:46:24.771576;590;160607;136706;126182;137879;524159;524159;-0.398;-0.881;0.389;64.0;0.0;0;0.0
09:46:24.777940;591;160621;136732;126226;137891;524159;524159;-0.398;-0.883;0.388;65.0;0.0;0;0.0
09:46:24.781489;592;160636;136759;126270;137900;524159;524159;-0.398;-0.883;0.388;65.0;0.0;0;0.0
09:46:24.791204;593;160661;136791;126322;137924;524159;524159;-0.399;-0.881;0.388;65.0;0.0;0;0.0
09:46:24.801328;594;160685;136810;126368;137939;524159;524159;-0.398;-0.881;0.389;65.0;0.0;0;0.0
09:46:24.801328;595;160703;136832;126402;137953;524159;524159;-0.398;-0.881;0.388;65.0;0.0;0;0.0
09:46:24.811160;596;160738;136821;126415;137989;524159;524159;-0.399;-0.885;0.386;65.0;0.0;0;0.0
09:46:24.821334;597;160769;136819;126407;138022;524159;524159;-0.398;-0.880;0.384;65.0;0.0;0;0.0
09:46:24.961348;598;160800;136791;126399;138052;524159;524159;-0.398;-0.884;0.387;65.0;0.0;0;0.0
09:46:24.971667;599;160836;136774;126393;138074;524159;524159;-0.399;-0.883;0.386;65.0;0.0;0;0.0
09:46:24.981439;600;160843;136759;126424;138077;524159;524159;-0.399;-0.882;0.382;65.0;0.0;0;0.0
09:46:24.981439;601;160755;136784;126518;138012;524159;524159;-0.399;-0.881;0.383;65.0;0.0;0;0.0
09:46:24.991282;602;160662;136787;126574;137941;524159;524159;-0.399;-0.883;0.381;65.0;0.0;0;0.0
09:46:24.991282;603;160623;136768;126583;137903;524159;524159;-0.400;-0.884;0.382;65.0;0.0;0;0.0
09:46:25.366530;604;160578;136733;126563;137870;524159;524159;-0.400;-0.884;0.382;65.0;0.0;0;0.0
09:46:25.371587;605;160527;136679;126518;137823;524159;524159;-0.399;-0.883;0.380;65.0;0.0;0;0.0
09:46:25.381521;606;160505;136644;126496;137794;524159;524159;-0.400;-0.881;0.378;65.0;0.0;0;0.0
09:46:25.381521;607;160465;136604;126478;137760;524159;524159;-0.400;-0.884;0.377;65.0;0.0;0;0.0
09:46:25.396270;608;160419;136561;126474;137708;524159;524159;-0.402;-0.883;0.378;65.0;0.0;0;0.0
09:46:25.401320;609;160370;136536;126477;137663;524159;524159;-0.403;-0.881;0.376;65.0;1181.4;100;0.0
09:46:25.411439;610;160337;136490;126447;137607;524159;524159;-0.404;-0.885;0.374;65.0;0.0;0;0.0
09:46:25.411439;611;160301;136498;126489;137550;524159;524159;-0.403;-0.885;0.373;65.0;0.0;0;0.0
09:46:25.421366;612;160291;136521;126544;137544;524159;524159;-0.402;-0.886;0.374;65.0;0.0;0;0.0
09:46:25.431538;613;160299;136523;126570;137535;524159;524159;-0.401;-0.884;0.372;65.0;0.0;0;0.0
09:46:25.761501;614;160281;136529;126613;137514;524159;524159;-0.403;-0.885;0.371;65.0;0.0;0;0.0
09:46:25.771471;615;160283;136530;126640;137515;524159;524159;-0.406;-0.884;0.371;65.0;0.0;0;0.0
09:46:25.778507;616;160288;136538;126665;137516;524159;524159;-0.406;-0.883;0.369;65.0;0.0;0;0.0
09:46:25.781537;617;160294;136565;126732;137499;524159;524159;-0.405;-0.886;0.370;65.0;0.0;0;0.0
09:46:25.791126;618;160289;136620;126844;137477;524159;524159;-0.409;-0.883;0.370;65.0;0.0;0;0.0
09:46:25.801536;619;160236;136654;126963;137437;524159;524159;-0.410;-0.883;0.367;65.0;0.0;0;0.0
09:46:25.801536;620;160106;136700;127087;137354;524159;524159;-0.406;-0.884;0.369;65.0;0.0;0;0.0
09:46:25.811565;621;160017;136754;127179;137293;524159;524159;-0.409;-0.883;0.367;65.0;0.0;0;0.0
09:46:25.821238;622;159955;136766;127209;137248;524159;524159;-0.411;-0.884;0.366;65.0;0.0;0;0.0
09:46:25.961415;623;159895;136774;127211;137221;524159;524159;-0.409;-0.884;0.366;65.0;0.0;0;0.0
09:46:25.971472;624;159842;136749;127153;137210;524159;524159;-0.405;-0.884;0.370;65.0;0.0;0;0.0
09:46:25.978515;625;159792;136687;127061;137191;524159;524159;-0.406;-0.885;0.370;65.0;0.0;0;0.0
09:46:25.981585;626;159741;136633;126987;137165;524159;524159;-0.407;-0.884;0.371;65.0;0.0;0;0.0
09:46:25.991258;627;159669;136598;126944;137123;524159;524159;-0.408;-0.882;0.367;65.0;0.0;0;0.0
09:46:26.001295;628;159637;136555;126882;137094;524159;524159;-0.410;-0.884;0.364;65.0;0.0;0;0.0
09:46:26.361537;629;159620;136544;126836;137082;524159;524159;-0.413;-0.882;0.364;65.0;0.0;0;0.0
09:46:26.371330;630;159604;136537;126796;137086;524159;524159;-0.411;-0.886;0.367;65.0;0.0;0;0.0
09:46:26.381325;631;159600;136488;126726;137099;524159;524159;-0.413;-0.885;0.370;65.0;0.0;0;0.0
09:46:26.381325;632;159596;136448;126656;137089;524159;524159;-0.409;-0.883;0.365;65.0;0.0;0;0.0
09:46:26.391311;633;159590;136440;126642;137082;524159;524159;-0.406;-0.882;0.364;65.0;0.0;0;0.0
09:46:26.401266;634;159597;136471;126682;137094;524159;524159;-0.406;-0.884;0.367;65.0;0.0;0;0.0
09:46:26.411308;635;159603;136489;126682;137127;524159;524159;-0.415;-0.886;0.368;65.0;0.0;0;0.0
09:46:26.411308;636;159590;136443;126645;137131;524159;524159;-0.426;-0.882;0.365;65.0;0.0;0;0.0
09:46:26.421557;637;159474;136449;126683;137069;524159;524159;-0.414;-0.881;0.366;65.0;0.0;0;0.0
09:46:26.431316;638;159327;136474;126722;136989;524159;524159;-0.406;-0.885;0.367;65.0;0.0;0;0.0
09:46:26.766467;639;159214;136475;126695;136948;524159;524159;-0.407;-0.886;0.367;65.0;1156.9;100;0.0
09:46:26.771521;640;159109;136425;126609;136913;524159;524159;-0.406;-0.886;0.370;65.0;0.0;0;0.0
09:46:26.781609;641;159012;136359;126495;136870;524159;524159;-0.402;-0.886;0.369;64.0;0.0;0;0.0
09:46:26.786616;642;158928;136303;126397;136814;524159;524159;-0.403;-0.886;0.365;64.0;0.0;0;0.0
09:46:26.791156;643;158842;136271;126345;136759;524159;524159;-0.406;-0.887;0.365;64.0;0.0;0;0.0
09:46:26.801328;644;158751;136260;126326;136717;524159;524159;-0.404;-0.886;0.365;64.0;0.0;0;0.0
09:46:26.811402;645;158661;136236;126315;136674;524159;524159;-0.405;-0.884;0.365;64.0;0.0;0;0.0
09:46:26.811402;646;158602;136244;126313;136656;524159;524159;-0.404;-0.886;0.366;64.0;0.0;0;0.0
09:46:26.821615;647;158556;136250;126299;136653;524159;524159;-0.404;-0.887;0.367;64.0;0.0;0;0.0
09:46:26.961475;648;158537;136240;126267;136666;524159;524159;-0.404;-0.887;0.366;64.0;0.0;0;0.0
09:46:26.961475;649;158524;136232;126220;136686;524159;524159;-0.403;-0.888;0.367;64.0;0.0;0;0.0
09:46:26.971145;650;158501;136222;126172;136700;524159;524159;-0.401;-0.886;0.367;64.0;0.0;0;0.0
09:46:26.981395;651;158484;136227;126135;136710;524159;524159;-0.402;-0.888;0.367;64.0;0.0;0;0.0
09:46:26.991210;652;158498;136226;126089;136763;524159;524159;-0.400;-0.888;0.371;64.0;0.0;0;0.0
09:46:26.991210;653;158501;136182;125976;136802;524159;524159;-0.401;-0.887;0.373;64.0;0.0;0;0.0
09:46:27.161192;654;158441;136099;125874;136785;524159;524159;-0.401;-0.886;0.369;64.0;0.0;0;0.0
09:46:27.171250;655;158257;136065;125854;136685;524159;524159;-0.401;-0.887;0.371;64.0;0.0;0;0.0
09:46:27.179895;656;158070;136061;125854;136574;524159;524159;-0.401;-0.885;0.369;64.0;0.0;0;0.0
09:46:27.181449;657;157891;136047;125807;136487;524159;524159;-0.401;-0.887;0.371;64.0;0.0;0;0.0
09:46:27.191329;658;157721;135994;125730;136403;524159;524159;-0.403;-0.885;0.373;64.0;0.0;0;0.0
09:46:27.361275;659;157528;135958;125671;136305;524159;524159;-0.402;-0.883;0.373;64.0;0.0;0;0.0
09:46:27.366280;660;157371;135953;125619;136237;524159;524159;-0.401;-0.885;0.374;64.0;0.0;0;0.0
09:46:27.371306;661;157250;135924;125546;136191;524159;524159;-0.399;-0.885;0.375;64.0;920.0;100;0.0
09:46:27.381224;662;157135;135893;125487;136159;524159;524159;-0.400;-0.887;0.378;64.0;0.0;0;0.0
09:46:27.391278;663;157030;135852;125392;136142;524159;524159;-0.400;-0.884;0.377;64.0;0.0;0;0.0
09:46:27.566283;664;156949;135813;125306;136113;524159;524159;-0.400;-0.883;0.375;64.0;0.0;0;0.0
09:46:27.576343;665;156868;135768;125222;136095;524159;524159;-0.400;-0.885;0.376;64.0;0.0;0;0.0
09:46:27.581423;666;156819;135737;125157;136090;524159;524159;-0.401;-0.885;0.377;64.0;0.0;0;0.0
09:46:27.591925;667;156781;135739;125130;136091;524159;524159;-0.400;-0.885;0.375;64.0;0.0;0;0.0
09:46:27.596931;668;156739;135757;125141;136098;524159;524159;-0.399;-0.886;0.379;64.0;0.0;0;0.0
09:46:27.961570;669;156725;135778;125120;136132;524159;524159;-0.399;-0.886;0.378;64.0;0.0;0;0.0
09:46:27.976192;670;156725;135775;125094;136164;524159;524159;-0.399;-0.886;0.379;64.0;0.0;0;0.0
09:46:27.981244;671;156723;135773;125063;136209;524159;524159;-0.399;-0.885;0.380;64.0;0.0;0;0.0
09:46:27.991210;672;156741;135768;125038;136260;524159;524159;-0.398;-0.884;0.378;64.0;0.0;0;0.0
09:46:27.991210;673;156765;135766;125013;136314;524159;524159;-0.399;-0.885;0.378;64.0;0.0;0;0.0
09:46:28.001324;674;156800;135769;124978;136363;524159;524159;-0.399;-0.885;0.381;64.0;0.0;0;0.0
09:46:28.011338;675;156832;135792;124987;136415;524159;524159;-0.399;-0.884;0.379;64.0;0.0;0;0.0
09:46:28.011338;676;156866;135820;124992;136475;524159;524159;-0.398;-0.884;0.380;63.0;0.0;0;0.0
09:46:28.021279;677;156917;135824;124986;136555;524159;524159;-0.399;-0.884;0.382;63.0;733.9;100;0.0
09:46:28.031234;678;156975;135834;124964;136644;524159;524159;-0.398;-0.885;0.380;63.0;0.0;0;0.0
09:46:28.166414;679;157025;135840;124951;136726;524159;524159;-0.397;-0.883;0.382;63.0;0.0;0;0.0
09:46:28.176468;680;157085;135846;124923;136804;524159;524159;-0.399;-0.885;0.381;63.0;0.0;0;0.0
09:46:28.181565;681;157149;135848;124898;136897;524159;524159;-0.398;-0.883;0.384;63.0;0.0;0;0.0
09:46:28.191308;682;157221;135860;124880;136986;524159;524159;-0.398;-0.883;0.384;63.0;0.0;0;0.0
09:46:28.196314;683;157293;135847;124853;137078;524159;524159;-0.397;-0.884;0.385;63.0;0.0;0;0.0
09:46:28.361508;684;157369;135856;124833;137158;524159;524159;-0.397;-0.885;0.382;63.0;0.0;0;0.0
09:46:28.371560;685;157447;135877;124857;137244;524159;524159;-0.398;-0.884;0.383;63.0;0.0;0;0.0
09:46:28.371560;686;157530;135916;124891;137325;524159;524159;-0.398;-0.885;0.382;63.0;0.0;0;0.0
09:46:28.381259;687;157593;135931;124918;137413;524159;524159;-0.398;-0.885;0.386;63.0;0.0;0;0.0
09:46:28.391139;688;157536;135926;124959;137426;524159;524159;-0.398;-0.884;0.383;63.0;0.0;0;0.0
09:46:28.561300;689;157407;135935;125022;137392;524159;524159;-0.398;-0.882;0.384;63.0;0.0;0;0.0
09:46:28.571349;690;157318;135975;125076;137383;524159;524159;-0.397;-0.884;0.383;63.0;0.0;0;0.0
09:46:28.571349;691;157244;136003;125136;137385;524159;524159;-0.397;-0.887;0.381;63.0;0.0;0;0.0
09:46:28.581302;692;157173;136030;125187;137391;524159;524159;-0.398;-0.885;0.381;63.0;0.0;0;0.0
09:46:28.591231;693;157063;136050;125222;137370;524159;524159;-0.397;-0.884;0.382;63.0;0.0;0;0.0
09:46:28.961395;694;156971;136065;125256;137362;524159;524159;-0.397;-0.885;0.382;63.0;0.0;0;0.0
09:46:28.971471;695;156928;136109;125284;137387;524159;524159;-0.396;-0.886;0.383;63.0;0.0;0;0.0
09:46:28.981312;696;156894;136138;125338;137423;524159;524159;-0.397;-0.887;0.384;63.0;0.0;0;0.0
09:46:28.996173;697;156864;136156;125357;137456;524159;524159;-0.397;-0.885;0.382;63.0;728.6;100;0.0
09:46:28.996173;698;156834;136169;125360;137483;524159;524159;-0.397;-0.883;0.382;63.0;0.0;0;0.0
09:46:29.001226;699;156816;136184;125392;137514;524159;524159;-0.398;-0.884;0.383;63.0;0.0;0;0.0
09:46:29.011418;700;156818;136232;125440;137559;524159;524159;-0.398;-0.885;0.383;63.0;0.0;0;0.0
09:46:29.021271;701;156831;136277;125479;137628;524159;524159;-0.397;-0.885;0.384;63.0;0.0;0;0.0
09:46:29.021310;702;156850;136306;125513;137698;524159;524159;-0.395;-0.885;0.384;63.0;0.0;0;0.0
09:46:29.031404;703;156876;136339;125547;137766;524159;524159;-0.395;-0.885;0.382;63.0;0.0;0;0.0
09:46:29.166214;704;156912;136361;125574;137834;524159;524159;-0.395;-0.886;0.383;63.0;0.0;0;0.0
09:46:29.171252;705;156960;136382;125597;137913;524159;524159;-0.396;-0.886;0.384;63.0;0.0;0;0.0
09:46:29.181529;706;157006;136415;125645;137993;524159;524159;-0.397;-0.885;0.382;63.0;0.0;0;0.0
09:46:29.191436;707;157061;136453;125690;138070;524159;524159;-0.397;-0.886;0.381;63.0;0.0;0;0.0
09:46:29.191436;708;157131;136501;125742;138159;524159;524159;-0.396;-0.886;0.383;63.0;0.0;0;0.0
09:46:29.366569;709;157202;136549;125810;138242;524159;524159;-0.396;-0.886;0.382;63.0;0.0;0;0.0
09:46:29.381285;710;157276;136600;125858;138334;524159;524159;-0.396;-0.885;0.383;63.0;0.0;0;0.0
09:46:29.386292;711;157369;136652;125934;138429;524159;524159;-0.395;-0.887;0.381;62.0;0.0;0;0.0
09:46:29.391327;712;157446;136705;125997;138519;524159;524159;-0.395;-0.887;0.381;62.0;0.0;0;0.0
09:46:29.391327;713;157537;136755;126053;138623;524159;524159;-0.395;-0.887;0.381;62.0;0.0;0;0.0
09:46:29.566460;714;157620;136796;126112;138717;524159;524159;-0.395;-0.887;0.381;62.0;723.9;100;0.0
09:46:29.571496;715;157722;136842;126159;138826;524159;524159;-0.395;-0.887;0.383;62.0;0.0;0;0.0
09:46:29.576503;716;157824;136878;126204;138934;524159;524159;-0.395;-0.886;0.381;62.0;0.0;0;0.0
09:46:29.581565;717;157913;136926;126252;139026;524159;524159;-0.396;-0.887;0.382;62.0;0.0;0;0.0
09:46:29.591250;718;158016;136976;126317;139134;524159;524159;-0.395;-0.886;0.381;62.0;0.0;0;0.0
09:46:29.971498;719;158121;137030;126366;139247;524159;524159;-0.395;-0.887;0.383;62.0;0.0;0;0.0
09:46:29.981430;720;158189;137053;126435;139315;524159;524159;-0.395;-0.886;0.381;62.0;0.0;0;0.0
09:46:29.981974;721;158156;137085;126541;139345;524159;524159;-0.395;-0.886;0.379;62.0;0.0;0;0.0
09:46:29.991200;722;158107;137143;126662;139353;524159;524159;-0.394;-0.886;0.379;62.0;0.0;0;0.0
09:46:29.991200;723;158094;137194;126740;139380;524159;524159;-0.395;-0.887;0.379;62.0;0.0;0;0.0
09:46:30.001573;724;158101;137231;126791;139433;524159;524159;-0.395;-0.888;0.380;62.0;0.0;0;0.0
09:46:30.011308;725;158091;137237;126801;139476;524159;524159;-0.395;-0.886;0.381;62.0;0.0;0;0.0
09:46:30.021389;726;158076;137218;126795;139502;524159;524159;-0.395;-0.887;0.382;62.0;0.0;0;0.0
09:46:30.021389;727;158079;137234;126808;139540;524159;524159;-0.394;-0.886;0.379;62.0;0.0;0;0.0
09:46:30.031165;728;158109;137266;126834;139595;524159;524159;-0.395;-0.888;0.381;62.0;0.0;0;0.0
09:46:30.161287;729;158124;137287;126839;139636;524159;524159;-0.395;-0.887;0.379;62.0;0.0;0;0.0
09:46:30.176561;730;158155;137266;126811;139698;524159;524159;-0.394;-0.886;0.380;62.0;0.0;0;0.0
09:46:30.186153;731;158186;137254;126774;139751;524159;524159;-0.396;-0.886;0.379;62.0;0.0;0;0.0
09:46:30.191191;732;158224;137241;126754;139812;524159;524159;-0.396;-0.888;0.381;62.0;0.0;0;0.0
09:46:30.196197;733;158274;137225;126721;139880;524159;524159;-0.395;-0.888;0.381;62.0;0.0;0;0.0
09:46:30.366350;734;158331;137206;126665;139937;524159;524159;-0.395;-0.886;0.378;62.0;0.0;0;0.0
09:46:30.371403;735;158395;137202;126647;139998;524159;524159;-0.395;-0.887;0.379;62.0;0.0;0;0.0
09:46:30.381504;736;158447;137208;126637;140060;524159;524159;-0.395;-0.887;0.381;63.0;0.0;0;0.0
09:46:30.382528;737;158523;137215;126623;140148;524159;524159;-0.395;-0.887;0.381;63.0;0.0;0;0.0
09:46:30.391560;738;158589;137200;126598;140214;524159;524159;-0.395;-0.887;0.380;63.0;0.0;0;0.0
09:46:30.561214;739;158665;137193;126581;140286;524159;524159;-0.395;-0.885;0.381;63.0;0.0;0;0.0
09:46:30.576504;740;158746;137196;126560;140367;524159;524159;-0.395;-0.888;0.379;63.0;0.0;0;0.0
09:46:30.583089;741;158831;137198;126551;140438;524159;524159;-0.395;-0.886;0.378;63.0;0.0;0;0.0
09:46:30.591120;742;158919;137211;126537;140513;524159;524159;-0.396;-0.888;0.380;63.0;0.0;0;0.0
09:46:30.596126;743;159021;137209;126531;140591;524159;524159;-0.395;-0.887;0.379;63.0;0.0;0;0.0
09:46:30.971220;744;159112;137211;126518;140664;524159;524159;-0.395;-0.886;0.381;63.0;0.0;0;0.0
09:46:30.981158;745;159200;137233;126521;140744;524159;524159;-0.394;-0.888;0.380;63.0;0.0;0;0.0
09:46:30.983183;746;159296;137238;126512;140826;524159;524159;-0.394;-0.887;0.379;63.0;0.0;0;0.0
09:46:30.991203;747;159394;137249;126515;140904;524159;524159;-0.395;-0.887;0.377;63.0;0.0;0;0.0
09:46:31.001189;748;159491;137266;126522;140981;524159;524159;-0.395;-0.886;0.378;63.0;1306.8;25;0.0
09:46:31.001189;749;159586;137275;126519;141057;524159;524159;-0.395;-0.887;0.380;63.0;0.0;0;0.0
09:46:31.011552;750;159675;137285;126521;141131;524159;524159;-0.395;-0.888;0.381;63.0;0.0;0;0.0
09:46:31.021485;751;159730;137300;126562;141180;524159;524159;-0.395;-0.888;0.377;63.0;0.0;0;0.0
09:46:31.031481;752;159667;137324;126652;141149;524159;524159;-0.394;-0.888;0.381;63.0;0.0;0;0.0
09:46:31.036485;753;159649;137364;126732;141142;524159;524159;-0.395;-0.886;0.379;63.0;0.0;0;0.0
09:46:31.171243;754;159675;137407;126786;141166;524159;524159;-0.395;-0.889;0.377;63.0;0.0;0;0.0
09:46:31.181301;755;159716;137445;126823;141201;524159;524159;-0.395;-0.887;0.380;63.0;0.0;0;0.0
09:46:31.183426;756;159735;137434;126809;141220;524159;524159;-0.394;-0.888;0.382;63.0;0.0;0;0.0
09:46:31.183426;757;159756;137430;126801;141241;524159;524159;-0.395;-0.887;0.381;63.0;0.0;0;0.0
09:46:31.191459;758;159794;137431;126797;141260;524159;524159;-0.395;-0.887;0.380;63.0;0.0;0;0.0
09:46:31.361252;759;159834;137444;126806;141289;524159;524159;-0.395;-0.889;0.381;63.0;0.0;0;0.0
09:46:31.371445;760;159885;137455;126784;141324;524159;524159;-0.395;-0.886;0.381;63.0;0.0;0;0.0
09:46:31.383910;761;159924;137417;126729;141348;524159;524159;-0.395;-0.887;0.379;63.0;0.0;0;0.0
09:46:31.391488;762;159986;137418;126716;141378;524159;524159;-0.396;-0.888;0.380;63.0;0.0;0;0.0
09:46:31.396496;763;160050;137426;126704;141413;524159;524159;-0.395;-0.888;0.380;63.0;0.0;0;0.0
09:46:31.561112;764;160108;137419;126675;141449;524159;524159;-0.396;-0.888;0.382;63.0;0.0;0;0.0
09:46:31.571421;765;160185;137413;126643;141483;524159;524159;-0.394;-0.887;0.379;63.0;0.0;0;0.0
09:46:31.581251;766;160262;137415;126631;141533;524159;524159;-0.395;-0.887;0.380;63.0;0.0;0;0.0
09:46:31.583773;767;160327;137421;126627;141577;524159;524159;-0.395;-0.888;0.379;63.0;0.0;0;0.0
09:46:31.591313;768;160395;137424;126611;141616;524159;524159;-0.394;-0.886;0.382;63.0;0.0;0;0.0
09:46:31.761131;769;160460;137435;126598;141663;524159;524159;-0.394;-0.887;0.381;63.0;0.0;0;0.0
09:46:31.776193;770;160537;137438;126592;141719;524159;524159;-0.394;-0.887;0.380;63.0;0.0;0;0.0
09:46:31.783849;771;160616;137450;126572;141775;524159;524159;-0.395;-0.888;0.381;63.0;0.0;0;0.0
09:46:31.783849;772;160701;137447;126564;141837;524159;524159;-0.395;-0.887;0.379;63.0;0.0;0;0.0
09:46:31.791386;773;160783;137457;126565;141900;524159;524159;-0.394;-0.887;0.380;63.0;0.0;0;0.0
09:46:31.966409;774;160856;137463;126552;141961;524159;524159;-0.395;-0.887;0.381;63.0;0.0;0;0.0
09:46:31.971451;775;160962;137461;126553;142044;524159;524159;-0.394;-0.888;0.381;63.0;0.0;0;0.0
09:46:31.984073;776;161034;137484;126540;142099;524159;524159;-0.394;-0.886;0.380;63.0;0.0;0;0.0
09:46:31.991129;777;161133;137484;126547;142176;524159;524159;-0.395;-0.887;0.380;63.0;0.0;0;0.0
09:46:31.991129;778;161221;137507;126552;142237;524159;524159;-0.394;-0.887;0.379;63.0;0.0;0;0.0
09:46:32.171274;779;161318;137537;126580;142309;524159;524159;-0.393;-0.886;0.382;63.0;0.0;0;0.0
09:46:32.181542;780;161403;137505;126521;142388;524159;524159;-0.394;-0.888;0.380;63.0;0.0;0;0.0
09:46:32.184067;781;161442;137467;126487;142429;524159;524159;-0.395;-0.888;0.379;63.0;1301.4;50;0.0
09:46:32.191593;782;161388;137455;126513;142404;524159;524159;-0.393;-0.886;0.381;63.0;0.0;0;0.0
09:46:32.191593;783;161349;137464;126535;142374;524159;524159;-0.395;-0.887;0.378;63.0;0.0;0;0.0
09:46:32.361116;784;161352;137495;126582;142365;524159;524159;-0.395;-0.888;0.377;63.0;0.0;0;0.0
09:46:32.371229;785;161364;137533;126617;142367;524159;524159;-0.395;-0.887;0.381;63.0;0.0;0;0.0
09:46:32.384148;786;161396;137547;126624;142389;524159;524159;-0.394;-0.887;0.380;63.0;0.0;0;0.0
09:46:32.391177;787;161405;137558;126638;142388;524159;524159;-0.393;-0.887;0.379;63.0;0.0;0;0.0
09:46:32.391177;788;161434;137571;126654;142403;524159;524159;-0.394;-0.887;0.380;63.0;0.0;0;0.0
09:46:32.561119;789;161459;137606;126694;142417;524159;524159;-0.395;-0.890;0.381;63.0;0.0;0;0.0
09:46:32.571544;790;161486;137610;126691;142437;524159;524159;-0.395;-0.886;0.381;63.0;0.0;0;0.0
09:46:32.584258;791;161505;137592;126654;142440;524159;524159;-0.395;-0.886;0.379;63.0;0.0;0;0.0
09:46:32.591307;792;161559;137590;126638;142479;524159;524159;-0.396;-0.889;0.377;63.0;0.0;0;0.0
09:46:32.601257;793;161600;137596;126627;142514;524159;524159;-0.394;-0.888;0.380;63.0;0.0;0;0.0
09:46:32.761216;794;161654;137598;126607;142554;524159;524159;-0.394;-0.888;0.378;63.0;0.0;0;0.0
09:46:32.771226;795;161693;137587;126577;142591;524159;524159;-0.394;-0.887;0.379;63.0;0.0;0;0.0
09:46:32.784786;796;161742;137591;126561;142625;524159;524159;-0.395;-0.888;0.381;63.0;0.0;0;0.0
09:46:32.791438;797;161791;137590;126549;142664;524159;524159;-0.395;-0.888;0.380;63.0;0.0;0;0.0
09:46:32.791438;798;161847;137583;126540;142708;524159;524159;-0.394;-0.888;0.381;63.0;0.0;0;0.0
09:46:32.961376;799;161897;137576;126520;142746;524159;524159;-0.394;-0.887;0.381;63.0;0.0;0;0.0
09:46:32.971549;800;161958;137592;126501;142801;524159;524159;-0.395;-0.888;0.379;63.0;0.0;0;0.0
09:46:32.981237;801;162026;137592;126490;142846;524159;524159;-0.394;-0.887;0.379;63.0;0.0;0;0.0
09:46:32.984788;802;162088;137597;126484;142892;524159;524159;-0.395;-0.887;0.379;63.0;0.0;0;0.0
09:46:32.991318;803;162158;137605;126468;142947;524159;524159;-0.395;-0.887;0.380;63.0;0.0;0;0.0
09:46:33.171184;804;162226;137597;126459;142994;524159;524159;-0.394;-0.887;0.379;63.0;0.0;0;0.0
09:46:33.184949;805;162299;137613;126446;143057;524159;524159;-0.394;-0.888;0.379;63.0;0.0;0;0.0
09:46:33.191478;806;162368;137607;126428;143106;524159;524159;-0.393;-0.886;0.380;63.0;0.0;0;0.0
09:46:33.196483;807;162443;137613;126438;143160;524159;524159;-0.394;-0.887;0.379;63.0;0.0;0;0.0
09:46:33.196483;808;162515;137635;126450;143212;524159;524159;-0.394;-0.887;0.379;63.0;0.0;0;0.0
09:46:33.371548;809;162584;137670;126472;143264;524159;524159;-0.395;-0.888;0.381;63.0;0.0;0;0.0
09:46:33.381319;810;162665;137676;126477;143323;524159;524159;-0.395;-0.889;0.381;63.0;0.0;0;0.0
09:46:33.391411;811;162667;137702;126546;143343;524159;524159;-0.395;-0.888;0.380;63.0;1206.4;100;0.0
09:46:33.391411;812;162597;137720;126636;143315;524159;524159;-0.394;-0.884;0.380;63.0;0.0;0;0.0
09:46:33.401278;813;162544;137754;126682;143272;524159;524159;-0.394;-0.888;0.376;63.0;0.0;0;0.0
09:46:33.571138;814;162529;137800;126748;143260;524159;524159;-0.395;-0.889;0.379;63.0;0.0;0;0.0
09:46:33.585846;815;162538;137814;126758;143279;524159;524159;-0.395;-0.887;0.380;63.0;0.0;0;0.0
09:46:33.585846;816;162545;137806;126729;143292;524159;524159;-0.393;-0.887;0.380;63.0;0.0;0;0.0
09:46:33.591385;817;162545;137783;126713;143304;524159;524159;-0.394;-0.886;0.383;63.0;0.0;0;0.0
09:46:33.591385;818;162534;137784;126710;143304;524159;524159;-0.394;-0.888;0.382;63.0;0.0;0;0.0
09:46:33.761158;819;162541;137793;126704;143310;524159;524159;-0.394;-0.889;0.381;63.0;0.0;0;0.0
09:46:33.771265;820;162527;137777;126677;143312;524159;524159;-0.395;-0.887;0.379;63.0;0.0;0;0.0
09:46:33.785825;821;162529;137758;126636;143321;524159;524159;-0.396;-0.887;0.380;63.0;0.0;0;0.0
09:46:33.791359;822;162529;137769;126615;143326;524159;524159;-0.395;-0.887;0.379;63.0;0.0;0;0.0
09:46:33.796365;823;162555;137751;126589;143340;524159;524159;-0.395;-0.887;0.381;63.0;0.0;0;0.0
09:46:33.961594;824;162578;137735;126556;143360;524159;524159;-0.394;-0.889;0.381;63.0;0.0;0;0.0
09:46:33.971410;825;162616;137724;126524;143392;524159;524159;-0.394;-0.886;0.378;63.0;0.0;0;0.0
09:46:33.981060;826;162623;137719;126499;143396;524159;524159;-0.395;-0.887;0.381;63.0;0.0;0;0.0
09:46:33.986076;827;162641;137714;126480;143416;524159;524159;-0.395;-0.887;0.380;63.0;0.0;0;0.0
09:46:33.991111;828;162671;137705;126465;143439;524159;524159;-0.395;-0.888;0.380;63.0;0.0;0;0.0
09:46:34.161249;829;162704;137714;126453;143467;524159;524159;-0.394;-0.888;0.378;63.0;0.0;0;0.0
09:46:34.176367;830;162737;137711;126442;143499;524159;524159;-0.394;-0.887;0.379;63.0;0.0;0;0.0
09:46:34.186545;831;162788;137714;126429;143543;524159;524159;-0.393;-0.887;0.380;63.0;0.0;0;0.0
09:46:34.191594;832;162821;137720;126421;143567;524159;524159;-0.394;-0.887;0.378;63.0;0.0;0;0.0
09:46:34.191594;833;162865;137723;126410;143603;524159;524159;-0.393;-0.888;0.379;63.0;0.0;0;0.0
09:46:34.361501;834;162909;137719;126395;143643;524159;524159;-0.393;-0.888;0.378;63.0;0.0;0;0.0
09:46:34.371324;835;162958;137715;126375;143682;524159;524159;-0.394;-0.888;0.382;63.0;0.0;0;0.0
09:46:34.381603;836;163005;137725;126386;143717;524159;524159;-0.394;-0.888;0.378;63.0;0.0;0;0.0
09:46:34.386536;837;163056;137744;126390;143764;524159;524159;-0.395;-0.887;0.378;63.0;0.0;0;0.0
09:46:34.391562;838;163107;137760;126403;143815;524159;524159;-0.392;-0.887;0.379;63.0;0.0;0;0.0
09:46:34.561327;839;163162;137774;126411;143860;524159;524159;-0.395;-0.889;0.380;63.0;0.0;0;0.0
09:46:34.571397;840;163168;137789;126456;143877;524159;524159;-0.395;-0.889;0.379;63.0;0.0;0;0.0
09:46:34.586822;841;163072;137808;126548;143832;524159;524159;-0.392;-0.886;0.381;63.0;1216.5;100;0.0
09:46:34.591372;842;162949;137826;126590;143751;524159;524159;-0.395;-0.888;0.377;63.0;0.0;0;0.0
09:46:34.601157;843;162850;137866;126650;143693;524159;524159;-0.395;-0.888;0.379;63.0;0.0;0;0.0
09:46:34.761190;844;162791;137875;126659;143667;524159;524159;-0.394;-0.888;0.382;63.0;0.0;0;0.0
09:46:34.771284;845;162721;137851;126618;143625;524159;524159;-0.393;-0.888;0.380;63.0;0.0;0;0.0
09:46:34.781245;846;162654;137827;126581;143595;524159;524159;-0.393;-0.887;0.380;63.0;0.0;0;0.0
09:46:34.791317;847;162579;137820;126582;143547;524159;524159;-0.395;-0.888;0.381;63.0;0.0;0;0.0
09:46:34.791317;848;162505;137833;126584;143502;524159;524159;-0.394;-0.889;0.380;63.0;0.0;0;0.0
09:46:34.961147;849;162424;137802;126545;143456;524159;524159;-0.393;-0.886;0.378;63.0;0.0;0;0.0
09:46:34.976299;850;162352;137768;126510;143412;524159;524159;-0.395;-0.887;0.377;63.0;0.0;0;0.0
09:46:34.987407;851;162286;137772;126487;143370;524159;524159;-0.395;-0.887;0.379;63.0;0.0;0;0.0
09:46:34.996468;852;162249;137773;126469;143350;524159;524159;-0.394;-0.887;0.379;63.0;0.0;0;0.0
09:46:34.996468;853;162216;137749;126426;143332;524159;524159;-0.394;-0.889;0.378;63.0;0.0;0;0.0
09:46:35.161081;854;162185;137737;126398;143318;524159;524159;-0.395;-0.888;0.379;63.0;0.0;0;0.0
09:46:35.176216;855;162145;137732;126376;143301;524159;524159;-0.394;-0.886;0.379;63.0;0.0;0;0.0
09:46:35.187326;856;162120;137714;126344;143299;524159;524159;-0.395;-0.888;0.379;62.0;0.0;0;0.0
09:46:35.191368;857;162099;137708;126332;143285;524159;524159;-0.394;-0.889;0.379;62.0;0.0;0;0.0
09:46:35.201115;858;162079;137711;126330;143277;524159;524159;-0.395;-0.888;0.378;62.0;0.0;0;0.0
09:46:35.371299;859;162062;137705;126304;143273;524159;524159;-0.394;-0.886;0.379;62.0;0.0;0;0.0
09:46:35.381351;860;162069;137701;126289;143282;524159;524159;-0.394;-0.887;0.378;62.0;0.0;0;0.0
09:46:35.391104;861;162061;137700;126277;143282;524159;524159;-0.394;-0.888;0.379;62.0;0.0;0;0.0
09:46:35.391104;862;162057;137698;126261;143289;524159;524159;-0.393;-0.887;0.379;62.0;0.0;0;0.0
09:46:35.391104;863;162060;137698;126251;143309;524159;524159;-0.393;-0.888;0.380;62.0;0.0;0;0.0
09:46:35.561185;864;162086;137694;126227;143336;524159;524159;-0.395;-0.889;0.378;62.0;0.0;0;0.0
09:46:35.581137;865;162089;137689;126215;143342;524159;524159;-0.395;-0.888;0.379;62.0;0.0;0;0.0
09:46:35.591093;866;162115;137704;126230;143365;524159;524159;-0.395;-0.887;0.379;62.0;0.0;0;0.0
09:46:35.601509;867;162127;137740;126241;143388;524159;524159;-0.394;-0.888;0.382;62.0;0.0;0;0.0
09:46:35.606515;868;162152;137727;126241;143408;524159;524159;-0.394;-0.888;0.379;62.0;0.0;0;0.0
09:46:35.761159;869;162117;137746;126285;143398;524159;524159;-0.394;-0.889;0.379;62.0;0.0;0;0.0
09:46:35.771210;870;161932;137756;126368;143301;524159;524159;-0.393;-0.886;0.380;62.0;0.0;0;0.0
09:46:35.788330;871;161705;137773;126422;143165;524159;524159;-0.395;-0.886;0.376;63.0;1187.2;100;0.0
09:46:35.791422;872;161526;137812;126479;143056;524159;524159;-0.394;-0.889;0.378;63.0;0.0;0;0.0
09:46:35.801276;873;161357;137815;126478;142956;524159;524159;-0.394;-0.887;0.379;63.0;0.0;0;0.0
09:46:35.971210;874;161192;137777;126436;142865;524159;524159;-0.393;-0.887;0.379;63.0;0.0;0;0.0
09:46:35.971210;875;161020;137755;126420;142769;524159;524159;-0.393;-0.887;0.379;63.0;0.0;0;0.0
09:46:35.981500;876;160848;137752;126412;142671;524159;524159;-0.394;-0.887;0.380;63.0;0.0;0;0.0
09:46:35.991083;877;160669;137752;126410;142563;524159;524159;-0.394;-0.887;0.380;63.0;0.0;0;0.0
09:46:35.996088;878;160488;137730;126382;142452;524159;524159;-0.394;-0.886;0.378;63.0;0.0;0;0.0
09:46:36.171047;879;160308;137693;126326;142346;524159;524159;-0.395;-0.888;0.378;63.0;0.0;0;0.0
09:46:36.171047;880;160164;137683;126310;142263;524159;524159;-0.394;-0.887;0.379;63.0;0.0;0;0.0
09:46:36.186152;881;160035;137671;126287;142199;524159;524159;-0.394;-0.888;0.379;63.0;0.0;0;0.0
09:46:36.191254;882;159921;137645;126242;142129;524159;524159;-0.394;-0.888;0.379;63.0;0.0;0;0.0
09:46:36.191254;883;159811;137637;126206;142074;524159;524159;-0.394;-0.887;0.378;63.0;0.0;0;0.0
09:46:36.371418;884;159703;137609;126171;142006;524159;524159;-0.395;-0.888;0.379;63.0;0.0;0;0.0
09:46:36.381228;885;159593;137595;126151;141945;524159;524159;-0.395;-0.888;0.379;63.0;0.0;0;0.0
09:46:36.388775;886;159502;137589;126128;141888;524159;524159;-0.395;-0.888;0.378;63.0;0.0;0;0.0
09:46:36.396341;887;159422;137585;126108;141852;524159;524159;-0.395;-0.889;0.378;63.0;0.0;0;0.0
09:46:36.401523;888;159337;137586;126087;141804;524159;524159;-0.394;-0.887;0.379;63.0;0.0;0;0.0
09:46:36.571532;889;159263;137560;126064;141759;524159;524159;-0.394;-0.888;0.378;63.0;0.0;0;0.0
09:46:36.571532;890;159207;137551;126042;141734;524159;524159;-0.393;-0.888;0.379;63.0;0.0;0;0.0
09:46:36.586231;891;159158;137530;125991;141705;524159;524159;-0.394;-0.888;0.379;63.0;0.0;0;0.0
09:46:36.591314;892;159109;137515;125972;141681;524159;524159;-0.393;-0.888;0.379;63.0;0.0;0;0.0
09:46:36.596318;893;159070;137490;125938;141657;524159;524159;-0.394;-0.887;0.381;63.0;0.0;0;0.0
09:46:36.771055;894;159041;137491;125927;141640;524159;524159;-0.395;-0.888;0.379;63.0;0.0;0;0.0
09:46:36.771055;895;159007;137508;125942;141617;524159;524159;-0.394;-0.887;0.378;63.0;0.0;0;0.0
09:46:36.781518;896;158979;137520;125954;141609;524159;524159;-0.392;-0.888;0.382;63.0;0.0;0;0.0
09:46:36.791146;897;158957;137524;125957;141606;524159;524159;-0.393;-0.888;0.379;63.0;0.0;0;0.0
09:46:36.796153;898;158860;137535;125997;141566;524159;524159;-0.395;-0.888;0.378;63.0;0.0;0;0.0
09:46:36.971365;899;158581;137543;126071;141419;524159;524159;-0.392;-0.886;0.379;63.0;0.0;0;0.0
09:46:36.971365;900;158205;137532;126109;141212;524159;524159;-0.395;-0.888;0.377;63.0;0.0;0;0.0
09:46:36.986268;901;157856;137568;126160;141018;524159;524159;-0.394;-0.889;0.378;62.0;1192.3;100;0.0
09:46:36.996367;902;157550;137558;126145;140859;524159;524159;-0.394;-0.887;0.379;62.0;0.0;0;0.0
09:46:37.001429;903;157252;137511;126095;140696;524159;524159;-0.392;-0.888;0.380;62.0;0.0;0;0.0
09:46:37.171381;904;156960;137485;126072;140532;524159;524159;-0.392;-0.887;0.379;62.0;0.0;0;0.0
09:46:37.171381;905;156651;137475;126066;140358;524159;524159;-0.394;-0.888;0.380;62.0;0.0;0;0.0
09:46:37.186150;906;156363;137468;126047;140198;524159;524159;-0.394;-0.889;0.379;62.0;0.0;0;0.0
09:46:37.191199;907;156062;137424;126018;140041;524159;524159;-0.394;-0.886;0.382;62.0;0.0;0;0.0
09:46:37.201181;908;155789;137386;125954;139891;524159;524159;-0.395;-0.888;0.378;62.0;0.0;0;0.0
09:46:37.371161;909;155536;137367;125929;139751;524159;524159;-0.396;-0.888;0.379;62.0;0.0;0;0.0
09:46:37.371161;910;155328;137356;125896;139644;524159;524159;-0.393;-0.888;0.379;62.0;0.0;0;0.0
09:46:37.381499;911;155128;137321;125845;139533;524159;524159;-0.395;-0.888;0.378;62.0;0.0;0;0.0
09:46:37.391430;912;154946;137295;125802;139434;524159;524159;-0.393;-0.888;0.377;62.0;0.0;0;0.0
09:46:37.391430;913;154782;137279;125769;139337;524159;524159;-0.394;-0.888;0.379;62.0;0.0;0;0.0
09:46:37.571598;914;154634;137253;125721;139256;524159;524159;-0.394;-0.887;0.380;62.0;0.0;0;0.0
09:46:37.571598;915;154472;137230;125711;139163;524159;524159;-0.395;-0.888;0.380;62.0;0.0;0;0.0
09:46:37.581053;916;154333;137222;125685;139100;524159;524159;-0.394;-0.888;0.379;62.0;0.0;0;0.0
09:46:37.591138;917;154202;137217;125652;139027;524159;524159;-0.394;-0.887;0.380;62.0;0.0;0;0.0
09:46:37.601232;918;154096;137194;125623;138986;524159;524159;-0.393;-0.889;0.377;62.0;0.0;0;0.0
09:46:37.771344;919;153995;137179;125614;138945;524159;524159;-0.395;-0.888;0.379;62.0;0.0;0;0.0
09:46:37.786532;920;153914;137168;125591;138912;524159;524159;-0.394;-0.888;0.378;62.0;0.0;0;0.0
09:46:37.791111;921;153845;137163;125560;138882;524159;524159;-0.394;-0.888;0.378;62.0;0.0;0;0.0
09:46:37.791111;922;153769;137154;125535;138843;524159;524159;-0.394;-0.887;0.379;62.0;0.0;0;0.0
09:46:37.791111;923;153718;137144;125536;138817;524159;524159;-0.395;-0.888;0.380;62.0;0.0;0;0.0
09:46:37.971250;924;153668;137167;125547;138793;524159;524159;-0.395;-0.887;0.379;62.0;0.0;0;0.0
09:46:37.971250;925;153632;137182;125546;138788;524159;524159;-0.393;-0.888;0.378;62.0;0.0;0;0.0
09:46:37.981178;926;153583;137185;125556;138762;524159;524159;-0.395;-0.889;0.377;62.0;0.0;0;0.0
09:46:37.991449;927;153378;137179;125624;138662;524159;524159;-0.394;-0.888;0.379;62.0;0.0;0;0.0
09:46:38.001145;928;152938;137178;125676;138433;524159;524159;-0.393;-0.887;0.379;62.0;0.0;0;0.0
09:46:38.171112;929;152483;137179;125711;138185;524159;524159;-0.395;-0.889;0.377;62.0;0.0;0;0.0
09:46:38.181390;930;152098;137192;125736;137983;524159;524159;-0.395;-0.889;0.379;62.0;0.0;0;0.0
09:46:38.191367;931;151756;137153;125692;137791;524159;524159;-0.394;-0.888;0.380;62.0;1173.6;100;0.0
09:46:38.196372;932;151416;137105;125646;137592;524159;524159;-0.392;-0.889;0.379;62.0;0.0;0;0.0
09:46:38.201412;933;151076;137078;125622;137399;524159;524159;-0.393;-0.887;0.379;62.0;0.0;0;0.0
09:46:38.371571;934;150759;137059;125604;137204;524159;524159;-0.395;-0.889;0.378;62.0;0.0;0;0.0
09:46:38.381547;935;150451;137040;125593;137027;524159;524159;-0.394;-0.888;0.378;62.0;0.0;0;0.0
09:46:38.391190;936;150143;136987;125531;136847;524159;524159;-0.394;-0.887;0.378;62.0;0.0;0;0.0
09:46:38.391190;937;149866;136955;125480;136684;524159;524159;-0.395;-0.888;0.376;62.0;0.0;0;0.0
09:46:38.401293;938;149633;136936;125455;136547;524159;524159;-0.394;-0.888;0.378;62.0;0.0;0;0.0
09:46:38.571105;939;149433;136920;125402;136428;524159;524159;-0.394;-0.888;0.381;62.0;0.0;0;0.0
09:46:38.571105;940;149256;136879;125355;136312;524159;524159;-0.394;-0.888;0.378;62.0;0.0;0;0.0
09:46:38.581505;941;149105;136855;125320;136230;524159;524159;-0.395;-0.887;0.378;62.0;0.0;0;0.0
09:46:38.591272;942;148951;136851;125291;136135;524159;524159;-0.394;-0.888;0.380;62.0;0.0;0;0.0
09:46:38.601334;943;148816;136815;125254;136057;524159;524159;-0.395;-0.887;0.378;62.0;0.0;0;0.0
09:46:38.771234;944;148693;136795;125226;135983;524159;524159;-0.394;-0.888;0.379;62.0;0.0;0;0.0
09:46:38.771234;945;148583;136785;125201;135901;524159;524159;-0.395;-0.887;0.377;62.0;0.0;0;0.0
09:46:38.786389;946;148509;136766;125176;135861;524159;524159;-0.393;-0.888;0.378;62.0;0.0;0;0.0
09:46:38.791462;947;148441;136758;125145;135813;524159;524159;-0.394;-0.888;0.379;62.0;0.0;0;0.0
09:46:38.801304;948;148390;136736;125117;135775;524159;524159;-0.394;-0.888;0.378;62.0;0.0;0;0.0
09:46:38.971462;949;148352;136739;125094;135754;524159;524159;-0.394;-0.887;0.379;62.0;0.0;0;0.0
09:46:38.990968;950;148327;136718;125058;135731;524159;524159;-0.393;-0.888;0.380;62.0;0.0;0;0.0
09:46:38.991490;951;148316;136715;125047;135724;524159;524159;-0.394;-0.888;0.379;62.0;0.0;0;0.0
09:46:38.991490;952;148310;136717;125045;135702;524159;524159;-0.394;-0.887;0.378;62.0;0.0;0;0.0
09:46:39.001158;953;148311;136747;125052;135701;524159;524159;-0.393;-0.887;0.381;62.0;0.0;0;0.0
09:46:39.171088;954;148313;136730;125041;135697;524159;524159;-0.394;-0.888;0.380;62.0;0.0;0;0.0
09:46:39.171088;955;148256;136728;125073;135666;524159;524159;-0.394;-0.888;0.378;62.0;0.0;0;0.0
09:46:39.181219;956;147938;136720;125136;135493;524159;524159;-0.393;-0.885;0.380;61.0;0.0;0;0.0
09:46:39.191295;957;147515;136704;125168;135257;524159;524159;-0.395;-0.886;0.377;61.0;0.0;0;0.0
09:46:39.201278;958;147184;136718;125204;135062;524159;524159;-0.394;-0.889;0.377;61.0;0.0;0;0.0
09:46:39.371298;959;146902;136705;125195;134900;524159;524159;-0.394;-0.888;0.379;61.0;1167.7;100;0.0
09:46:39.381097;960;146649;136649;125139;134751;524159;524159;-0.393;-0.887;0.378;61.0;0.0;0;0.0
09:46:39.381097;961;146381;136617;125106;134595;524159;524159;-0.393;-0.888;0.379;61.0;0.0;0;0.0
09:46:39.391498;962;146143;136594;125080;134442;524159;524159;-0.393;-0.888;0.378;61.0;0.0;0;0.0
09:46:39.401083;963;145913;136579;125065;134290;524159;524159;-0.394;-0.889;0.379;61.0;0.0;0;0.0
09:46:39.571437;964;145720;136543;125037;134170;524159;524159;-0.393;-0.886;0.379;61.0;0.0;0;0.0
09:46:39.581374;965;145550;136495;124972;134062;524159;524159;-0.393;-0.887;0.377;61.0;0.0;0;0.0
09:46:39.591101;966;145405;136478;124933;133950;524159;524159;-0.394;-0.887;0.379;61.0;0.0;0;0.0
09:46:39.591101;967;145311;136459;124896;133876;524159;524159;-0.394;-0.887;0.381;61.0;0.0;0;0.0
09:46:39.601152;968;145228;136431;124848;133808;524159;524159;-0.393;-0.889;0.379;61.0;0.0;0;0.0
09:46:39.771507;969;145176;136400;124796;133758;524159;524159;-0.394;-0.888;0.377;61.0;0.0;0;0.0
09:46:39.781279;970;145119;136371;124766;133701;524159;524159;-0.394;-0.886;0.378;61.0;0.0;0;0.0
09:46:39.781279;971;145090;136360;124731;133672;524159;524159;-0.395;-0.889;0.379;61.0;0.0;0;0.0
09:46:39.791427;972;145070;136354;124710;133643;524159;524159;-0.394;-0.889;0.379;61.0;0.0;0;0.0
09:46:39.801491;973;145051;136351;124684;133625;524159;524159;-0.393;-0.888;0.380;61.0;0.0;0;0.0
09:46:39.971329;974;145055;136332;124664;133612;524159;524159;-0.393;-0.888;0.378;61.0;0.0;0;0.0
09:46:39.981239;975;145064;136314;124631;133601;524159;524159;-0.393;-0.888;0.378;61.0;0.0;0;0.0
09:46:39.981239;976;145093;136310;124618;133599;524159;524159;-0.393;-0.888;0.379;61.0;0.0;0;0.0
09:46:39.991492;977;145140;136303;124586;133617;524159;524159;-0.393;-0.888;0.378;61.0;0.0;0;0.0
09:46:40.001086;978;145203;136289;124559;133641;524159;524159;-0.393;-0.888;0.379;61.0;0.0;0;0.0
09:46:40.171340;979;145256;136279;124543;133661;524159;524159;-0.394;-0.888;0.377;61.0;0.0;0;0.0
09:46:40.171340;980;145317;136275;124526;133689;524159;524159;-0.395;-0.888;0.377;61.0;0.0;0;0.0
09:46:40.181417;981;145391;136285;124512;133725;524159;524159;-0.393;-0.887;0.379;61.0;0.0;0;0.0
09:46:40.191440;982;145477;136285;124506;133763;524159;524159;-0.393;-0.888;0.378;61.0;0.0;0;0.0
09:46:40.201073;983;145516;136294;124538;133767;524159;524159;-0.395;-0.887;0.379;61.0;0.0;0;0.0
09:46:40.371194;984;145343;136290;124617;133664;524159;524159;-0.392;-0.887;0.380;61.0;0.0;0;0.0
09:46:40.381448;985;145051;136292;124671;133489;524159;524159;-0.393;-0.887;0.377;61.0;0.0;0;0.0
09:46:40.381448;986;144825;136302;124716;133344;524159;524159;-0.394;-0.889;0.377;61.0;0.0;0;0.0
09:46:40.391405;987;144658;136300;124707;133226;524159;524159;-0.394;-0.888;0.379;61.0;0.0;0;0.0
09:46:40.401161;988;144515;136259;124675;133134;524159;524159;-0.392;-0.888;0.379;61.0;1139.7;100;0.0
09:46:40.571263;989;144356;136231;124654;133020;524159;524159;-0.393;-0.888;0.377;61.0;0.0;0;0.0
09:46:40.581361;990;144237;136220;124632;132939;524159;524159;-0.393;-0.887;0.380;61.0;0.0;0;0.0
09:46:40.581361;991;144136;136204;124625;132858;524159;524159;-0.394;-0.889;0.378;61.0;0.0;0;0.0
09:46:40.591516;992;144036;136185;124590;132787;524159;524159;-0.393;-0.886;0.379;61.0;0.0;0;0.0
09:46:40.601122;993;143958;136146;124543;132724;524159;524159;-0.394;-0.887;0.378;61.0;0.0;0;0.0
09:46:40.771114;994;143916;136120;124497;132683;524159;524159;-0.395;-0.889;0.379;61.0;0.0;0;0.0
09:46:40.781179;995;143902;136123;124463;132665;524159;524159;-0.393;-0.888;0.381;61.0;0.0;0;0.0
09:46:40.786187;996;143919;136073;124411;132664;524159;524159;-0.393;-0.888;0.378;61.0;0.0;0;0.0
09:46:40.791221;997;143945;136066;124358;132662;524159;524159;-0.392;-0.888;0.377;61.0;0.0;0;0.0
09:46:40.801240;998;143977;136047;124323;132673;524159;524159;-0.394;-0.888;0.380;61.0;0.0;0;0.0
09:46:40.971116;999;144018;136035;124298;132678;524159;524159;-0.393;-0.888;0.379;61.0;0.0;0;0.0
09:46:40.981159;1000;144060;136019;124275;132684;524159;524159;-0.394;-0.888;0.377;61.0;0.0;0;0.0
09:46:40.981159;1001;144109;136016;124251;132702;524159;524159;-0.393;-0.888;0.380;60.0;0.0;0;0.0
09:46:40.991267;1002;144173;136013;124229;132731;524159;524159;-0.395;-0.887;0.381;60.0;0.0;0;0.0
09:46:41.001194;1003;144259;135998;124199;132770;524159;524159;-0.394;-0.889;0.378;60.0;0.0;0;0.0
09:46:41.171360;1004;144350;135990;124179;132818;524159;524159;-0.393;-0.888;0.377;60.0;0.0;0;0.0
09:46:41.181505;1005;144450;135995;124150;132863;524159;524159;-0.393;-0.888;0.377;60.0;0.0;0;0.0
09:46:41.181505;1006;144560;135984;124123;132921;524159;524159;-0.393;-0.889;0.380;60.0;0.0;0;0.0
09:46:41.196131;1007;144677;135974;124094;132990;524159;524159;-0.393;-0.888;0.378;60.0;0.0;0;0.0
09:46:41.206185;1008;144787;135959;124071;133051;524159;524159;-0.394;-0.887;0.380;60.0;0.0;0;0.0
09:46:41.371384;1009;144899;135962;124060;133111;524159;524159;-0.394;-0.887;0.376;60.0;0.0;0;0.0
09:46:41.381028;1010;145027;135982;124069;133198;524159;524159;-0.392;-0.888;0.381;60.0;0.0;0;0.0
09:46:41.381028;1011;145146;135992;124071;133264;524159;524159;-0.393;-0.887;0.381;60.0;0.0;0;0.0
09:46:41.391559;1012;145217;136000;124123;133307;524159;524159;-0.392;-0.889;0.379;60.0;0.0;0;0.0
09:46:41.401280;1013;145116;136010;124224;133248;524159;524159;-0.392;-0.886;0.380;60.0;0.0;0;0.0
09:46:41.571309;1014;144973;136008;124286;133165;524159;524159;-0.392;-0.888;0.376;60.0;0.0;0;0.0
09:46:41.581149;1015;144895;136036;124375;133114;524159;524159;-0.394;-0.890;0.377;60.0;0.0;0;0.0
09:46:41.581149;1016;144862;136055;124418;133092;524159;524159;-0.394;-0.888;0.378;60.0;1131.2;100;0.0
09:46:41.591366;1017;144822;136058;124440;133066;524159;524159;-0.394;-0.888;0.380;60.0;0.0;0;0.0
09:46:41.601100;1018;144795;136054;124481;133049;524159;524159;-0.393;-0.888;0.377;60.0;0.0;0;0.0
09:46:41.771477;1019;144782;136058;124511;133043;524159;524159;-0.394;-0.887;0.377;60.0;0.0;0;0.0
09:46:41.781313;1020;144778;136100;124602;133039;524159;524159;-0.395;-0.891;0.378;60.0;0.0;0;0.0
09:46:41.796315;1021;144788;136112;124652;133046;524159;524159;-0.394;-0.887;0.379;60.0;0.0;0;0.0
09:46:41.801361;1022;144816;136123;124682;133051;524159;524159;-0.394;-0.888;0.375;60.0;0.0;0;0.0
09:46:41.811464;1023;144864;136138;124752;133068;524159;524159;-0.395;-0.890;0.375;60.0;0.0;0;0.0
09:46:41.971275;1024;144927;136166;124821;133105;524159;524159;-0.395;-0.888;0.378;60.0;0.0;0;0.0
09:46:41.981258;1025;145009;136195;124865;133153;524159;524159;-0.395;-0.888;0.377;60.0;0.0;0;0.0
09:46:41.991130;1026;145098;136223;124946;133198;524159;524159;-0.395;-0.889;0.375;60.0;0.0;0;0.0
09:46:41.992151;1027;145192;136255;125033;133240;524159;524159;-0.395;-0.889;0.376;60.0;0.0;0;0.0
09:46:42.006210;1028;145289;136313;125156;133298;524159;524159;-0.395;-0.889;0.376;60.0;0.0;0;0.0
09:46:42.181347;1029;145400;136365;125255;133353;524159;524159;-0.395;-0.889;0.376;60.0;0.0;0;0.0
09:46:42.181347;1030;145511;136409;125360;133417;524159;524159;-0.395;-0.888;0.376;60.0;0.0;0;0.0
09:46:42.192310;1031;145642;136452;125469;133495;524159;524159;-0.396;-0.889;0.375;60.0;0.0;0;0.0
09:46:42.197944;1032;145777;136505;125584;133571;524159;524159;-0.395;-0.888;0.374;60.0;0.0;0;0.0
09:46:42.201330;1033;145913;136549;125683;133649;524159;524159;-0.394;-0.889;0.375;60.0;0.0;0;0.0
09:46:42.376185;1034;146049;136595;125804;133732;524159;524159;-0.396;-0.888;0.375;60.0;0.0;0;0.0
09:46:42.381257;1035;146201;136660;125935;133820;524159;524159;-0.396;-0.887;0.374;60.0;0.0;0;0.0
09:46:42.392455;1036;146337;136732;126111;133896;524159;524159;-0.396;-0.889;0.373;60.0;0.0;0;0.0
09:46:42.392455;1037;146487;136815;126265;133993;524159;524159;-0.396;-0.890;0.374;60.0;0.0;0;0.0
09:46:42.401518;1038;146644;136869;126388;134088;524159;524159;-0.396;-0.890;0.374;60.0;0.0;0;0.0
09:46:42.571470;1039;146734;136897;126540;134133;524159;524159;-0.397;-0.889;0.372;60.0;0.0;0;0.0
09:46:42.581507;1040;146685;136947;126726;134092;524159;524159;-0.395;-0.888;0.372;60.0;0.0;0;0.0
09:46:42.591054;1041;146654;136989;126868;134078;524159;524159;-0.397;-0.889;0.372;60.0;0.0;0;0.0
09:46:42.592614;1042;146674;137038;127004;134094;524159;524159;-0.397;-0.889;0.372;60.0;0.0;0;0.0
09:46:42.601164;1043;146726;137091;127074;134136;524159;524159;-0.396;-0.889;0.374;60.0;0.0;0;0.0
09:46:42.771081;1044;146777;137096;127114;134172;524159;524159;-0.396;-0.889;0.374;60.0;1122.8;100;0.0
09:46:42.781099;1045;146838;137090;127132;134214;524159;524159;-0.396;-0.889;0.372;60.0;0.0;0;0.0
09:46:42.790997;1046;146894;137087;127153;134254;524159;524159;-0.397;-0.890;0.374;59.0;0.0;0;0.0
09:46:42.793021;1047;146939;137082;127171;134285;524159;524159;-0.397;-0.888;0.375;59.0;0.0;0;0.0
09:46:42.801061;1048;146987;137040;127126;134332;524159;524159;-0.398;-0.887;0.371;59.0;0.0;0;0.0
09:46:42.976156;1049;147050;137012;127083;134382;524159;524159;-0.398;-0.887;0.374;59.0;0.0;0;0.0
09:46:42.986221;1050;147141;136995;127060;134452;524159;524159;-0.398;-0.889;0.372;59.0;0.0;0;0.0
09:46:42.993312;1051;147230;136968;126992;134534;524159;524159;-0.398;-0.888;0.373;59.0;0.0;0;0.0
09:46:43.001352;1052;147325;136921;126911;134595;524159;524159;-0.397;-0.889;0.372;59.0;0.0;0;0.0
09:46:43.006359;1053;147437;136879;126833;134683;524159;524159;-0.396;-0.888;0.372;59.0;0.0;0;0.0
09:46:43.171149;1054;147534;136836;126775;134754;524159;524159;-0.398;-0.889;0.372;59.0;0.0;0;0.0
09:46:43.181287;1055;147637;136816;126710;134839;524159;524159;-0.398;-0.888;0.372;59.0;0.0;0;0.0
09:46:43.191054;1056;147750;136767;126618;134928;524159;524159;-0.398;-0.888;0.371;59.0;0.0;0;0.0
09:46:43.193584;1057;147865;136728;126559;134999;524159;524159;-0.397;-0.887;0.370;59.0;0.0;0;0.0
09:46:43.201142;1058;147993;136719;126534;135081;524159;524159;-0.398;-0.889;0.372;59.0;0.0;0;0.0
09:46:43.371278;1059;148113;136709;126528;135150;524159;524159;-0.400;-0.889;0.373;59.0;0.0;0;0.0
09:46:43.381393;1060;148209;136695;126543;135201;524159;524159;-0.399;-0.888;0.371;59.0;0.0;0;0.0
09:46:43.393567;1061;148189;136712;126617;135196;524159;524159;-0.397;-0.888;0.369;59.0;0.0;0;0.0
09:46:43.393567;1062;148147;136724;126671;135169;524159;524159;-0.397;-0.888;0.368;59.0;0.0;0;0.0
09:46:43.406111;1063;148149;136726;126688;135172;524159;524159;-0.399;-0.889;0.370;59.0;0.0;0;0.0
09:46:43.571226;1064;148185;136723;126698;135191;524159;524159;-0.398;-0.889;0.373;59.0;0.0;0;0.0
09:46:43.581260;1065;148224;136694;126665;135222;524159;524159;-0.398;-0.888;0.370;59.0;0.0;0;0.0
09:46:43.591514;1066;148278;136677;126624;135258;524159;524159;-0.398;-0.888;0.368;59.0;0.0;0;0.0
09:46:43.601110;1067;148340;136662;126591;135299;524159;524159;-0.399;-0.890;0.371;59.0;0.0;0;0.0
09:46:43.606127;1068;148378;136616;126540;135333;524159;524159;-0.399;-0.887;0.370;59.0;0.0;0;0.0
09:46:43.776295;1069;148419;136569;126476;135364;524159;524159;-0.400;-0.887;0.368;59.0;0.0;0;0.0
09:46:43.781393;1070;148476;136553;126434;135406;524159;524159;-0.400;-0.887;0.367;59.0;0.0;0;0.0
09:46:43.791287;1071;148546;136563;126405;135455;524159;524159;-0.399;-0.888;0.369;59.0;0.0;0;0.0
09:46:43.794316;1072;148643;136520;126318;135527;524159;524159;-0.398;-0.889;0.371;59.0;0.0;0;0.0
09:46:43.801391;1073;148747;136474;126219;135589;524159;524159;-0.399;-0.888;0.371;59.0;1143.6;100;0.0
09:46:43.976201;1074;148839;136459;126167;135641;524159;524159;-0.399;-0.888;0.369;59.0;0.0;0;0.0
09:46:43.981264;1075;148930;136463;126138;135686;524159;524159;-0.399;-0.889;0.369;59.0;0.0;0;0.0
09:46:43.994472;1076;149019;136470;126124;135735;524159;524159;-0.398;-0.887;0.369;59.0;0.0;0;0.0
09:46:43.994472;1077;149126;136468;126088;135792;524159;524159;-0.399;-0.889;0.371;59.0;0.0;0;0.0
09:46:44.001505;1078;149236;136459;126077;135851;524159;524159;-0.400;-0.887;0.370;59.0;0.0;0;0.0
09:46:44.171353;1079;149235;136466;126134;135841;524159;524159;-0.398;-0.888;0.370;59.0;0.0;0;0.0
09:46:44.181279;1080;149175;136452;126124;135808;524159;524159;-0.397;-0.889;0.371;59.0;0.0;0;0.0
09:46:44.194577;1081;149162;136414;126054;135790;524159;524159;-0.397;-0.883;0.370;59.0;0.0;0;0.0
09:46:44.206132;1082;149163;136398;126015;135772;524159;524159;-0.398;-0.890;0.369;59.0;0.0;0;0.0
09:46:44.211176;1083;149174;136366;125961;135768;524159;524159;-0.396;-0.889;0.372;59.0;0.0;0;0.0
09:46:44.371433;1084;149185;136363;125929;135752;524159;524159;-0.395;-0.888;0.372;59.0;0.0;0;0.0
09:46:44.381380;1085;149227;136374;125923;135755;524159;524159;-0.396;-0.889;0.370;59.0;0.0;0;0.0
09:46:44.391044;1086;149260;136425;125980;135756;524159;524159;-0.396;-0.891;0.369;58.0;0.0;0;0.0
09:46:44.395064;1087;149307;136451;126004;135775;524159;524159;-0.395;-0.889;0.372;58.0;0.0;0;0.0
09:46:44.406092;1088;149363;136472;125998;135799;524159;524159;-0.397;-0.888;0.373;58.0;0.0;0;0.0
09:46:44.571321;1089;149435;136495;126031;135833;524159;524159;-0.397;-0.889;0.371;58.0;0.0;0;0.0
09:46:44.581422;1090;149522;136524;126047;135878;524159;524159;-0.396;-0.890;0.372;58.0;0.0;0;0.0
09:46:44.591393;1091;149618;136555;126042;135945;524159;524159;-0.397;-0.890;0.372;58.0;0.0;0;0.0
09:46:44.595434;1092;149707;136552;126018;136003;524159;524159;-0.396;-0.888;0.373;58.0;0.0;0;0.0
09:46:44.600997;1093;149796;136565;125990;136053;524159;524159;-0.396;-0.889;0.375;58.0;0.0;0;0.0
09:46:44.771433;1094;149902;136566;125961;136124;524159;524159;-0.395;-0.889;0.375;58.0;0.0;0;0.0
09:46:44.791119;1095;150012;136566;125910;136203;524159;524159;-0.395;-0.889;0.374;58.0;0.0;0;0.0
09:46:44.801216;1096;150114;136554;125837;136275;524159;524159;-0.394;-0.889;0.375;58.0;0.0;0;0.0
09:46:44.806227;1097;150222;136520;125740;136350;524159;524159;-0.396;-0.888;0.373;58.0;0.0;0;0.0
09:46:44.811277;1098;150336;136472;125654;136419;524159;524159;-0.395;-0.889;0.374;58.0;0.0;0;0.0
09:46:44.971455;1099;150456;136462;125577;136492;524159;524159;-0.395;-0.889;0.373;58.0;0.0;0;0.0
09:46:44.981382;1100;150575;136447;125510;136560;524159;524159;-0.396;-0.889;0.373;58.0;1062.2;100;0.0
09:46:44.991489;1101;150699;136433;125463;136631;524159;524159;-0.396;-0.888;0.373;58.0;0.0;0;0.0
09:46:44.996010;1102;150831;136430;125416;136715;524159;524159;-0.395;-0.889;0.372;58.0;0.0;0;0.0
09:46:45.001054;1103;150949;136435;125371;136786;524159;524159;-0.395;-0.888;0.373;58.0;0.0;0;0.0
09:46:45.171210;1104;151075;136430;125346;136863;524159;524159;-0.395;-0.888;0.374;58.0;0.0;0;0.0
09:46:45.181069;1105;151203;136429;125328;136941;524159;524159;-0.395;-0.890;0.375;58.0;0.0;0;0.0
09:46:45.191371;1106;151324;136439;125323;137000;524159;524159;-0.395;-0.888;0.374;58.0;0.0;0;0.0
09:46:45.195904;1107;151462;136478;125354;137094;524159;524159;-0.395;-0.889;0.373;58.0;0.0;0;0.0
09:46:45.206447;1108;151575;136497;125376;137165;524159;524159;-0.395;-0.890;0.377;58.0;0.0;0;0.0
09:46:45.371420;1109;151594;136471;125402;137175;524159;524159;-0.395;-0.889;0.373;58.0;0.0;0;0.0
09:46:45.381379;1110;151527;136473;125501;137122;524159;524159;-0.395;-0.889;0.373;58.0;0.0;0;0.0
09:46:45.391285;1111;151482;136518;125601;137090;524159;524159;-0.395;-0.889;0.374;58.0;0.0;0;0.0
09:46:45.396297;1112;151485;136555;125669;137090;524159;524159;-0.395;-0.890;0.372;58.0;0.0;0;0.0
09:46:45.401321;1113;151487;136569;125713;137103;524159;524159;-0.395;-0.890;0.375;58.0;0.0;0;0.0
09:46:45.581071;1114;151453;136563;125720;137078;524159;524159;-0.394;-0.889;0.376;58.0;0.0;0;0.0
09:46:45.591123;1115;151427;136559;125716;137052;524159;524159;-0.394;-0.888;0.373;58.0;0.0;0;0.0
09:46:45.596273;1116;151451;136555;125700;137066;524159;524159;-0.394;-0.888;0.376;58.0;0.0;0;0.0
09:46:45.596273;1117;151484;136552;125675;137095;524159;524159;-0.394;-0.890;0.376;58.0;0.0;0;0.0
09:46:45.601311;1118;151519;136534;125641;137124;524159;524159;-0.395;-0.889;0.375;58.0;0.0;0;0.0
09:46:45.771259;1119;151570;136502;125571;137159;524159;524159;-0.394;-0.888;0.375;58.0;848.6;100;0.0
09:46:45.781007;1120;151618;136474;125509;137167;524159;524159;-0.395;-0.889;0.373;58.0;0.0;0;0.0
09:46:45.791176;1121;151701;136448;125451;137218;524159;524159;-0.395;-0.889;0.374;57.0;0.0;0;0.0
09:46:45.796217;1122;151770;136429;125383;137259;524159;524159;-0.394;-0.889;0.376;57.0;0.0;0;0.0
09:46:45.806261;1123;151848;136411;125314;137310;524159;524159;-0.394;-0.888;0.376;57.0;0.0;0;0.0
09:46:45.976225;1124;151934;136388;125264;137357;524159;524159;-0.394;-0.888;0.375;57.0;0.0;0;0.0
09:46:45.981268;1125;152033;136377;125210;137424;524159;524159;-0.394;-0.889;0.376;57.0;0.0;0;0.0
09:46:45.991405;1126;152113;136360;125149;137470;524159;524159;-0.395;-0.889;0.375;57.0;0.0;0;0.0
09:46:45.996588;1127;152211;136342;125088;137533;524159;524159;-0.395;-0.890;0.372;57.0;0.0;0;0.0
09:46:46.001138;1128;152311;136322;125024;137589;524159;524159;-0.395;-0.888;0.375;57.0;0.0;0;0.0
09:46:46.171205;1129;152417;136307;124965;137656;524159;524159;-0.394;-0.888;0.375;57.0;0.0;0;0.0
09:46:46.181281;1130;152533;136294;124927;137727;524159;524159;-0.394;-0.888;0.375;57.0;0.0;0;0.0
09:46:46.191416;1131;152634;136288;124876;137778;524159;524159;-0.394;-0.889;0.375;57.0;0.0;0;0.0
09:46:46.196815;1132;152752;136278;124834;137848;524159;524159;-0.395;-0.890;0.374;57.0;0.0;0;0.0
09:46:46.201354;1133;152872;136276;124801;137924;524159;524159;-0.394;-0.889;0.375;57.0;0.0;0;0.0
09:46:46.376143;1134;152992;136265;124763;137999;524159;524159;-0.395;-0.889;0.375;57.0;0.0;0;0.0
09:46:46.381192;1135;153110;136271;124731;138073;524159;524159;-0.394;-0.889;0.377;57.0;0.0;0;0.0
09:46:46.391057;1136;153234;136252;124690;138158;524159;524159;-0.394;-0.889;0.374;57.0;0.0;0;0.0
09:46:46.397085;1137;153356;136247;124649;138230;524159;524159;-0.394;-0.889;0.373;57.0;0.0;0;0.0
09:46:46.401114;1138;153481;136240;124634;138311;524159;524159;-0.394;-0.888;0.375;57.0;752.1;100;0.0
09:46:46.581005;1139;153607;136268;124637;138393;524159;524159;-0.394;-0.889;0.376;57.0;0.0;0;0.0
09:46:46.591122;1140;153726;136279;124635;138459;524159;524159;-0.395;-0.889;0.377;57.0;0.0;0;0.0
09:46:46.596903;1141;153752;136263;124686;138471;524159;524159;-0.395;-0.889;0.373;57.0;0.0;0;0.0
09:46:46.606477;1142;153690;136262;124766;138426;524159;524159;-0.394;-0.888;0.375;57.0;0.0;0;0.0
09:46:46.611019;1143;153677;136274;124837;138423;524159;524159;-0.394;-0.889;0.373;57.0;0.0;0;0.0
09:46:46.771108;1144;153697;136307;124884;138422;524159;524159;-0.394;-0.889;0.374;57.0;0.0;0;0.0
09:46:46.781318;1145;153716;136319;124879;138431;524159;524159;-0.392;-0.889;0.375;57.0;0.0;0;0.0
09:46:46.796822;1146;153731;136282;124849;138441;524159;524159;-0.393;-0.889;0.375;57.0;0.0;0;0.0
09:46:46.806374;1147;153738;136263;124823;138436;524159;524159;-0.393;-0.888;0.374;57.0;0.0;0;0.0
09:46:46.811431;1148;153789;136254;124803;138466;524159;524159;-0.393;-0.888;0.375;57.0;0.0;0;0.0
09:46:46.971331;1149;153842;136250;124776;138485;524159;524159;-0.394;-0.889;0.376;57.0;0.0;0;0.0
09:46:46.981157;1150;153886;136242;124731;138512;524159;524159;-0.393;-0.888;0.375;57.0;0.0;0;0.0
09:46:46.991440;1151;153936;136203;124672;138536;524159;524159;-0.394;-0.888;0.376;57.0;0.0;0;0.0
09:46:46.996491;1152;154000;136184;124620;138567;524159;524159;-0.394;-0.889;0.374;57.0;0.0;0;0.0
09:46:47.001016;1153;154079;136188;124567;138606;524159;524159;-0.395;-0.889;0.375;57.0;0.0;0;0.0
09:46:47.171416;1154;154157;136175;124513;138648;524159;524159;-0.393;-0.887;0.376;57.0;0.0;0;0.0
09:46:47.181231;1155;154236;136155;124468;138689;524159;524159;-0.394;-0.889;0.374;57.0;0.0;0;0.0
09:46:47.191397;1156;154321;136146;124424;138729;524159;524159;-0.394;-0.888;0.375;57.0;0.0;0;0.0
09:46:47.201405;1157;154407;136134;124382;138777;524159;524159;-0.394;-0.889;0.377;57.0;0.0;0;0.0
09:46:47.201405;1158;154501;136137;124344;138832;524159;524159;-0.394;-0.888;0.376;57.0;0.0;0;0.0
09:46:47.371204;1159;154596;136112;124307;138885;524159;524159;-0.395;-0.889;0.375;57.0;0.0;0;0.0
09:46:47.391507;1160;154697;136115;124274;138941;524159;524159;-0.395;-0.889;0.376;57.0;0.0;0;0.0
09:46:47.396814;1161;154805;136115;124240;139009;524159;524159;-0.394;-0.888;0.375;57.0;0.0;0;0.0
09:46:47.406575;1162;154900;136107;124226;139060;524159;524159;-0.393;-0.889;0.376;57.0;0.0;0;0.0
09:46:47.416153;1163;155011;136105;124205;139129;524159;524159;-0.394;-0.889;0.376;57.0;0.0;0;0.0
09:46:47.571111;1164;155110;136108;124185;139181;524159;524159;-0.394;-0.889;0.376;57.0;0.0;0;0.0
09:46:47.581171;1165;155231;136126;124169;139260;524159;524159;-0.393;-0.889;0.375;57.0;0.0;0;0.0
09:46:47.591236;1166;155350;136126;124159;139327;524159;524159;-0.393;-0.889;0.375;57.0;0.0;0;0.0
09:46:47.601226;1167;155464;136139;124144;139393;524159;524159;-0.395;-0.889;0.376;57.0;0.0;0;0.0
09:46:47.606233;1168;155575;136145;124146;139454;524159;524159;-0.394;-0.888;0.375;57.0;0.0;0;0.0
09:46:47.771204;1169;155686;136156;124152;139525;524159;524159;-0.392;-0.890;0.376;57.0;1187.9;25;0.0
09:46:47.781139;1170;155780;136172;124170;139578;524159;524159;-0.394;-0.889;0.375;57.0;0.0;0;0.0
09:46:47.791080;1171;155772;136161;124251;139571;524159;524159;-0.393;-0.889;0.374;57.0;0.0;0;0.0
09:46:47.801172;1172;155731;136168;124312;139547;524159;524159;-0.392;-0.889;0.375;57.0;0.0;0;0.0
09:46:47.801172;1173;155734;136189;124382;139543;524159;524159;-0.395;-0.890;0.373;57.0;0.0;0;0.0
09:46:47.971365;1174;155761;136217;124415;139568;524159;524159;-0.394;-0.889;0.375;57.0;0.0;0;0.0
09:46:47.981125;1175;155800;136197;124384;139598;524159;524159;-0.394;-0.888;0.375;57.0;0.0;0;0.0
09:46:47.991254;1176;155814;136182;124359;139610;524159;524159;-0.394;-0.888;0.374;57.0;0.0;0;0.0
09:46:48.000974;1177;155840;136172;124346;139635;524159;524159;-0.392;-0.888;0.375;57.0;0.0;0;0.0
09:46:48.000974;1178;155877;136170;124317;139657;524159;524159;-0.394;-0.890;0.376;57.0;0.0;0;0.0
09:46:48.171039;1179;155920;136174;124304;139686;524159;524159;-0.393;-0.889;0.377;57.0;0.0;0;0.0
09:46:48.181106;1180;155961;136149;124247;139712;524159;524159;-0.393;-0.887;0.375;57.0;0.0;0;0.0
09:46:48.191131;1181;156024;136129;124202;139755;524159;524159;-0.394;-0.889;0.373;57.0;0.0;0;0.0
09:46:48.201117;1182;156087;136114;124175;139799;524159;524159;-0.393;-0.888;0.375;57.0;0.0;0;0.0
09:46:48.201117;1183;156152;136091;124115;139853;524159;524159;-0.392;-0.889;0.376;57.0;0.0;0;0.0
09:46:48.381001;1184;156224;136064;124064;139888;524159;524159;-0.393;-0.888;0.375;57.0;0.0;0;0.0
09:46:48.381001;1185;156304;136055;124076;139924;524159;524159;-0.394;-0.887;0.373;57.0;0.0;0;0.0
09:46:48.396547;1186;156376;136085;124155;139956;524159;524159;-0.393;-0.891;0.373;57.0;0.0;0;0.0
09:46:48.406107;1187;156470;136131;124243;140005;524159;524159;-0.394;-0.890;0.372;57.0;0.0;0;0.0
09:46:48.406107;1188;156553;136191;124352;140047;524159;524159;-0.394;-0.890;0.374;57.0;0.0;0;0.0
09:46:48.571326;1189;156646;136275;124495;140102;524159;524159;-0.393;-0.889;0.375;57.0;0.0;0;0.0
09:46:48.581408;1190;156744;136356;124602;140168;524159;524159;-0.393;-0.889;0.374;57.0;0.0;0;0.0
09:46:48.591456;1191;156843;136405;124674;140241;524159;524159;-0.393;-0.890;0.375;57.0;0.0;0;0.0
09:46:48.601282;1192;156945;136457;124724;140309;524159;524159;-0.394;-0.889;0.376;57.0;0.0;0;0.0
09:46:48.601282;1193;157062;136466;124747;140380;524159;524159;-0.393;-0.889;0.374;57.0;0.0;0;0.0
09:46:48.781251;1194;157179;136459;124777;140452;524159;524159;-0.396;-0.889;0.372;57.0;0.0;0;0.0
09:46:48.786262;1195;157288;136492;124863;140517;524159;524159;-0.395;-0.889;0.372;57.0;0.0;0;0.0
09:46:48.796871;1196;157386;136563;124975;140564;524159;524159;-0.395;-0.890;0.372;57.0;0.0;0;0.0
09:46:48.801397;1197;157492;136630;125096;140634;524159;524159;-0.394;-0.890;0.374;57.0;0.0;0;0.0
09:46:48.801397;1198;157572;136676;125237;140680;524159;524159;-0.395;-0.890;0.373;57.0;0.0;0;0.0
09:46:48.971210;1199;157545;136746;125459;140661;524159;524159;-0.395;-0.889;0.373;57.0;0.0;0;0.0
09:46:48.981372;1200;157515;136807;125637;140651;524159;524159;-0.394;-0.888;0.373;57.0;0.0;0;0.0
09:46:48.991258;1201;157521;136877;125777;140652;524159;524159;-0.395;-0.890;0.373;57.0;1277.5;50;0.0
09:46:49.001206;1202;157559;136932;125907;140687;524159;524159;-0.397;-0.889;0.373;57.0;0.0;0;0.0
09:46:49.001206;1203;157605;136955;125969;140733;524159;524159;-0.395;-0.889;0.375;57.0;0.0;0;0.0
09:46:49.181248;1204;157614;136990;126044;140741;524159;524159;-0.394;-0.891;0.372;57.0;0.0;0;0.0
09:46:49.181248;1205;157658;137020;126118;140762;524159;524159;-0.395;-0.890;0.372;57.0;0.0;0;0.0
09:46:49.191167;1206;157700;137077;126201;140799;524159;524159;-0.395;-0.891;0.374;57.0;0.0;0;0.0
09:46:49.201086;1207;157735;137091;126241;140830;524159;524159;-0.395;-0.887;0.373;57.0;0.0;0;0.0
09:46:49.201086;1208;157772;137087;126258;140859;524159;524159;-0.396;-0.888;0.374;57.0;0.0;0;0.0
09:46:49.385992;1209;157829;137105;126297;140881;524159;524159;-0.396;-0.888;0.372;57.0;0.0;0;0.0
09:46:49.391052;1210;157904;137133;126340;140930;524159;524159;-0.396;-0.889;0.373;57.0;0.0;0;0.0
09:46:49.401388;1211;157984;137157;126369;140986;524159;524159;-0.395;-0.890;0.373;57.0;0.0;0;0.0
09:46:49.401388;1212;158066;137172;126400;141034;524159;524159;-0.396;-0.889;0.371;57.0;0.0;0;0.0
09:46:49.401388;1213;158140;137203;126431;141076;524159;524159;-0.396;-0.889;0.374;57.0;0.0;0;0.0
09:46:49.571450;1214;158219;137222;126473;141130;524159;524159;-0.396;-0.888;0.373;57.0;0.0;0;0.0
09:46:49.580941;1215;158314;137242;126501;141188;524159;524159;-0.396;-0.889;0.372;57.0;0.0;0;0.0
09:46:49.591075;1216;158397;137270;126553;141230;524159;524159;-0.397;-0.889;0.370;57.0;0.0;0;0.0
09:46:49.601205;1217;158472;137303;126625;141275;524159;524159;-0.396;-0.890;0.371;57.0;0.0;0;0.0
09:46:49.601205;1218;158563;137331;126664;141332;524159;524159;-0.397;-0.889;0.372;57.0;0.0;0;0.0
09:46:49.781265;1219;158617;137358;126722;141373;524159;524159;-0.397;-0.889;0.371;57.0;0.0;0;0.0
09:46:49.791255;1220;158583;137375;126804;141355;524159;524159;-0.396;-0.890;0.371;57.0;0.0;0;0.0
09:46:49.806407;1221;158533;137385;126866;141323;524159;524159;-0.396;-0.890;0.369;57.0;0.0;0;0.0
09:46:49.811499;1222;158526;137423;126930;141317;524159;524159;-0.398;-0.891;0.373;57.0;0.0;0;0.0
09:46:49.811499;1223;158549;137448;126962;141345;524159;524159;-0.397;-0.889;0.372;57.0;0.0;0;0.0
09:46:49.981059;1224;158571;137442;126929;141371;524159;524159;-0.396;-0.889;0.371;57.0;0.0;0;0.0
09:46:49.991113;1225;158596;137401;126874;141397;524159;524159;-0.396;-0.888;0.373;57.0;0.0;0;0.0
09:46:49.997990;1226;158634;137381;126845;141427;524159;524159;-0.396;-0.890;0.374;57.0;0.0;0;0.0
09:46:50.001021;1227;158656;137351;126787;141447;524159;524159;-0.396;-0.889;0.372;57.0;0.0;0;0.0
09:46:50.001021;1228;158659;137300;126706;141443;524159;524159;-0.398;-0.887;0.371;57.0;0.0;0;0.0
09:46:50.181092;1229;158706;137277;126658;141467;524159;524159;-0.398;-0.888;0.369;57.0;0.0;0;0.0
09:46:50.196202;1230;158756;137249;126615;141501;524159;524159;-0.397;-0.888;0.369;57.0;1182.9;100;0.0
09:46:50.201281;1231;158806;137233;126549;141522;524159;524159;-0.397;-0.888;0.371;57.0;0.0;0;0.0
09:46:50.211032;1232;158871;137215;126496;141560;524159;524159;-0.396;-0.888;0.372;57.0;0.0;0;0.0
