timestmp;smpleCnt;grnCnt;led2;led3;grn2Cnt;irCnt;redCnt;accelX;accelY;accelZ;hr3;rr5;rrsecure;spo2
08:32:21.598017;0;140216;31858;26006;135414;106604;106644;-0.508;-0.361;0.778;60.0;0.0;0;0.0
08:32:21.603218;1;228948;31851;26006;172908;237303;237357;-0.509;-0.366;0.778;60.0;0.0;0;0.0
08:32:21.607381;2;196408;31852;26005;146602;368448;368520;-0.508;-0.365;0.779;60.0;0.0;0;0.0
08:32:21.610378;3;182914;31849;26009;136492;493640;493692;-0.508;-0.368;0.778;60.0;0.0;0;0.0
08:32:21.613376;4;176145;31853;26009;131380;524159;524159;-0.508;-0.368;0.778;60.0;0.0;0;0.0
08:32:21.618370;5;169638;31858;26003;126463;524159;524159;-0.508;-0.365;0.781;60.0;0.0;0;0.0
08:32:21.621374;6;169674;31853;26001;126466;524159;524159;-0.508;-0.365;0.780;60.0;0.0;0;0.0
08:32:21.624369;7;169700;31856;26006;126472;524159;524159;-0.508;-0.364;0.780;60.0;0.0;0;0.0
08:32:21.627366;8;169737;31857;26001;126486;524159;524159;-0.508;-0.360;0.782;60.0;0.0;0;0.0
08:32:21.629365;9;169768;31861;26003;126493;524159;524159;-0.507;-0.364;0.780;60.0;0.0;0;0.0
08:32:21.632363;10;169790;31863;25999;126491;524159;524159;-0.508;-0.367;0.778;60.0;0.0;0;0.0
08:32:21.634362;11;169828;31867;25995;126504;524159;524159;-0.508;-0.366;0.778;60.0;0.0;0;0.0
08:32:21.637555;12;169841;62156;51357;126496;524159;524159;-0.508;-0.364;0.781;60.0;0.0;0;0.0
08:32:21.641565;13;169862;63757;51349;126501;524159;524159;-0.508;-0.369;0.781;60.0;0.0;0;0.0
08:32:21.644550;14;169868;63734;51340;126495;524159;524159;-0.508;-0.369;0.778;60.0;0.0;0;0.0
08:32:21.648548;15;169890;63699;51316;126468;524159;524159;-0.507;-0.362;0.781;60.0;0.0;0;0.0
08:32:21.650547;16;169907;63669;51303;126439;524159;524159;-0.508;-0.366;0.777;60.0;0.0;0;0.0
08:32:21.653545;17;169932;63671;51308;126426;524159;524159;-0.508;-0.371;0.777;60.0;0.0;0;0.0
08:32:21.755462;18;169962;63669;51304;126426;524159;524159;-0.507;-0.365;0.780;60.0;0.0;0;0.0
08:32:21.775452;19;169980;63664;51296;126415;524159;524159;-0.507;-0.360;0.781;60.0;0.0;0;0.0
08:32:21.785452;20;169992;63661;51294;126400;524159;524159;-0.508;-0.364;0.778;60.0;0.0;0;0.0
08:32:21.795451;21;170010;63657;51290;126394;524159;524159;-0.507;-0.368;0.780;60.0;0.0;0;0.0
08:32:21.795451;22;170034;63643;51282;126389;524159;524159;-0.507;-0.360;0.784;60.0;0.0;0;0.0
08:32:21.955433;23;170053;63646;51280;126383;524159;524159;-0.508;-0.365;0.777;60.0;0.0;0;0.0
08:32:21.965431;24;170055;116063;98342;126365;524159;524159;-0.508;-0.367;0.780;60.0;0.0;0;0.0
08:32:21.975432;25;170071;125339;100989;126354;524159;524159;-0.507;-0.365;0.777;60.0;0.0;0;0.0
08:32:21.985430;26;170092;125304;100986;126349;524159;524159;-0.508;-0.366;0.779;60.0;0.0;0;0.0
08:32:21.995430;27;170110;125276;100981;126342;524159;524159;-0.507;-0.365;0.781;60.0;0.0;0;0.0
08:32:22.161049;28;170133;125257;100976;126336;524159;524159;-0.507;-0.366;0.781;60.0;0.0;0;0.0
08:32:22.161049;29;170154;125235;100977;126335;524159;524159;-0.508;-0.365;0.779;60.0;0.0;0;0.0
08:32:22.178280;30;170172;125225;100969;126333;524159;524159;-0.507;-0.361;0.780;60.0;0.0;0;0.0
08:32:22.187273;31;170203;125217;100956;126342;524159;524159;-0.508;-0.364;0.783;60.0;0.0;0;0.0
08:32:22.192329;32;170224;125203;100961;126345;524159;524159;-0.507;-0.364;0.779;60.0;0.0;0;0.0
08:32:22.362313;33;170239;125201;100958;126345;524159;524159;-0.507;-0.362;0.779;60.0;0.0;0;0.0
08:32:22.362313;34;170266;125204;100952;126339;524159;524159;-0.507;-0.363;0.779;60.0;0.0;0;0.0
08:32:22.372311;35;170289;125200;100948;126348;524159;524159;-0.507;-0.367;0.782;60.0;0.0;0;0.0
08:32:22.382311;36;170300;128516;103671;126343;524159;524159;-0.507;-0.371;0.779;60.0;0.0;0;0.0
08:32:22.392308;37;170327;128455;103653;126340;524159;524159;-0.507;-0.367;0.782;60.0;0.0;0;0.0
08:32:22.552303;38;170341;128378;103611;126313;524159;524159;-0.507;-0.360;0.781;60.0;0.0;0;0.0
08:32:22.562291;39;170357;128358;103599;126293;524159;524159;-0.507;-0.365;0.776;60.0;0.0;0;0.0
08:32:22.572291;40;170366;128360;103601;126288;524159;524159;-0.507;-0.369;0.784;60.0;0.0;0;0.0
08:32:22.582291;41;170388;128350;103593;126290;524159;524159;-0.506;-0.362;0.784;60.0;0.0;0;0.0
08:32:22.592289;42;170402;128343;103583;126283;524159;524159;-0.507;-0.363;0.779;60.0;0.0;0;0.0
08:32:22.762270;43;170389;128347;103586;126261;524159;524159;-0.507;-0.369;0.777;60.0;0.0;0;0.0
08:32:22.772270;44;170376;128338;103570;126238;524159;524159;-0.507;-0.369;0.782;60.0;0.0;0;0.0
08:32:22.772270;45;170368;128313;103559;126227;524159;524159;-0.507;-0.365;0.778;60.0;0.0;0;0.0
08:32:22.782270;46;170360;128320;103557;126215;524159;524159;-0.507;-0.368;0.777;60.0;0.0;0;0.0
08:32:22.782270;47;170345;128312;103549;126206;524159;524159;-0.507;-0.369;0.776;60.0;0.0;0;0.0
08:32:22.962250;48;170333;128313;103547;126201;524159;524159;-0.507;-0.366;0.777;60.0;0.0;0;0.0
08:32:22.962250;49;170312;128323;103542;126187;524159;524159;-0.507;-0.371;0.778;60.0;0.0;0;0.0
08:32:22.972250;50;170297;128334;103550;126183;524159;524159;-0.508;-0.370;0.777;60.0;0.0;0;0.0
08:32:22.982247;51;170287;128336;103545;126180;524159;524159;-0.507;-0.369;0.777;60.0;0.0;0;0.0
08:32:22.982247;52;170261;128339;103541;126166;524159;524159;-0.508;-0.368;0.777;60.0;0.0;0;0.0
08:32:23.162228;53;170233;128354;103543;126158;524159;524159;-0.508;-0.374;0.778;60.0;0.0;0;0.0
08:32:23.162228;54;170191;128361;103549;126149;524159;524159;-0.508;-0.373;0.775;60.0;0.0;0;0.0
08:32:23.172229;55;170158;128370;103553;126148;524159;524159;-0.508;-0.376;0.774;60.0;0.0;0;0.0
08:32:23.182227;56;170123;128388;103565;126146;524159;524159;-0.508;-0.375;0.772;60.0;0.0;0;0.0
08:32:23.182227;57;170092;128409;103574;126146;524159;524159;-0.507;-0.375;0.775;60.0;0.0;0;0.0
08:32:23.362209;58;170072;128421;103574;126144;524159;524159;-0.508;-0.377;0.776;60.0;0.0;0;0.0
08:32:23.362209;59;170021;128432;103576;126129;524159;524159;-0.508;-0.379;0.775;60.0;0.0;0;0.0
08:32:23.382208;60;169973;128368;103547;126103;524159;524159;-0.507;-0.373;0.775;60.0;0.0;0;0.0
08:32:23.382208;61;169933;128334;103541;126084;524159;524159;-0.507;-0.376;0.770;60.0;0.0;0;0.0
08:32:23.392203;62;169887;128350;103553;126067;524159;524159;-0.509;-0.380;0.773;60.0;0.0;0;0.0
08:32:23.562185;63;169840;128365;103560;126064;524159;524159;-0.507;-0.376;0.775;60.0;0.0;0;0.0
08:32:23.562185;64;169826;128373;103561;126077;524159;524159;-0.507;-0.374;0.774;60.0;0.0;0;0.0
08:32:23.572186;65;169775;128387;103577;126064;524159;524159;-0.508;-0.376;0.770;60.0;0.0;0;0.0
08:32:23.582187;66;169723;128399;103583;126058;524159;524159;-0.508;-0.382;0.773;60.0;0.0;0;0.0
08:32:23.592190;67;169680;128390;103584;126052;524159;524159;-0.508;-0.377;0.773;60.0;0.0;0;0.0
08:32:23.762167;68;169632;128404;103583;126048;524159;524159;-0.508;-0.379;0.770;60.0;0.0;0;0.0
08:32:23.762167;69;169588;128420;103595;126053;524159;524159;-0.509;-0.379;0.772;60.0;0.0;0;0.0
08:32:23.782168;70;169551;128450;103613;126070;524159;524159;-0.508;-0.379;0.770;60.0;0.0;0;0.0
08:32:23.792166;71;169515;128459;103630;126072;524159;524159;-0.508;-0.381;0.771;60.0;0.0;0;0.0
08:32:23.792166;72;169485;128490;103647;126086;524159;524159;-0.508;-0.381;0.771;60.0;0.0;0;0.0
08:32:23.962145;73;169451;128516;103660;126102;524159;524159;-0.508;-0.380;0.772;60.0;0.0;0;0.0
08:32:23.962145;74;169421;128531;103677;126113;524159;524159;-0.509;-0.381;0.770;60.0;0.0;0;0.0
08:32:23.972145;75;169387;128546;103698;126125;524159;524159;-0.508;-0.381;0.770;60.0;0.0;0;0.0
08:32:23.982143;76;169361;128558;103708;126148;524159;524159;-0.508;-0.382;0.775;60.0;0.0;0;0.0
08:32:23.982143;77;169317;128570;103717;126160;524159;524159;-0.509;-0.383;0.770;60.0;0.0;0;0.0
08:32:24.162079;78;169281;128558;103715;126173;524159;524159;-0.509;-0.384;0.767;60.0;0.0;0;0.0
08:32:24.162079;79;169245;128524;103704;126179;524159;524159;-0.508;-0.384;0.766;60.0;0.0;0;0.0
08:32:24.172079;80;169205;128523;103722;126201;524159;524159;-0.509;-0.385;0.767;60.0;0.0;0;0.0
08:32:24.182078;81;169196;128544;103746;126234;524159;524159;-0.509;-0.385;0.767;60.0;0.0;0;0.0
08:32:24.182078;82;169211;128567;103760;126270;524159;524159;-0.508;-0.383;0.769;60.0;0.0;0;0.0
08:32:24.362058;83;169206;128581;103773;126286;524159;524159;-0.508;-0.384;0.768;60.0;0.0;0;0.0
08:32:24.362058;84;169212;128607;103794;126306;524159;524159;-0.509;-0.383;0.768;60.0;0.0;0;0.0
08:32:24.372059;85;169220;128609;103806;126309;524159;524159;-0.509;-0.384;0.767;60.0;0.0;0;0.0
08:32:24.382057;86;169228;128618;103824;126314;524159;524159;-0.510;-0.384;0.764;60.0;0.0;0;0.0
08:32:24.382057;87;169235;128647;103848;126312;524159;524159;-0.510;-0.386;0.764;60.0;0.0;0;0.0
08:32:24.562037;88;169253;128683;103867;126325;524159;524159;-0.510;-0.388;0.764;60.0;0.0;0;0.0
08:32:24.562037;89;169264;128698;103885;126330;524159;524159;-0.510;-0.389;0.764;59.0;0.0;0;0.0
08:32:24.572038;90;169261;128723;103915;126328;524159;524159;-0.511;-0.387;0.759;59.0;0.0;0;0.0
08:32:24.582039;91;169260;128752;103940;126333;524159;524159;-0.510;-0.388;0.758;59.0;0.0;0;0.0
08:32:24.582039;92;169287;128790;103971;126359;524159;524159;-0.509;-0.391;0.762;59.0;0.0;0;0.0
08:32:24.762016;93;169306;128825;103995;126386;524159;524159;-0.510;-0.390;0.765;59.0;0.0;0;0.0
08:32:24.762016;94;169326;128821;104016;126394;524159;524159;-0.510;-0.389;0.762;59.0;0.0;0;0.0
08:32:24.772016;95;169332;128798;104012;126382;524159;524159;-0.510;-0.392;0.759;59.0;0.0;0;0.0
08:32:24.782015;96;169322;128783;104020;126360;524159;524159;-0.513;-0.391;0.759;59.0;0.0;0;0.0
08:32:24.782015;97;169313;128816;104051;126362;524159;524159;-0.516;-0.392;0.754;59.0;0.0;0;0.0
08:32:24.961996;98;169357;128856;104098;126402;524159;524159;-0.515;-0.392;0.758;59.0;0.0;0;0.0
08:32:24.961996;99;169401;128869;104114;126424;524159;524159;-0.512;-0.390;0.759;59.0;0.0;0;0.0
08:32:24.971997;100;169434;128898;104133;126441;524159;524159;-0.512;-0.391;0.756;59.0;0.0;0;0.0
08:32:24.981997;101;169447;128915;104152;126432;524159;524159;-0.513;-0.395;0.758;59.0;0.0;0;0.0
08:32:24.991994;102;169465;128934;104178;126427;524159;524159;-0.512;-0.394;0.756;59.0;800.7;25;0.0
08:32:25.161979;103;169472;128943;104201;126427;524159;524159;-0.514;-0.395;0.756;59.0;0.0;0;0.0
08:32:25.161979;104;169498;128983;104230;126441;524159;524159;-0.518;-0.396;0.755;59.0;0.0;0;0.0
08:32:25.171977;105;169531;129011;104250;126450;524159;524159;-0.519;-0.397;0.754;59.0;0.0;0;0.0
08:32:25.181975;106;169585;129015;104259;126469;524159;524159;-0.518;-0.394;0.754;59.0;0.0;0;0.0
08:32:25.181975;107;169624;129034;104271;126473;524159;524159;-0.519;-0.394;0.750;59.0;0.0;0;0.0
08:32:25.361954;108;169636;129053;104279;126476;524159;524159;-0.523;-0.396;0.751;59.0;0.0;0;0.0
08:32:25.361954;109;169673;129065;104305;126493;524159;524159;-0.521;-0.399;0.756;59.0;0.0;0;0.0
08:32:25.381958;110;169727;129047;104286;126511;524159;524159;-0.518;-0.396;0.751;59.0;0.0;0;0.0
08:32:25.391952;111;169760;128995;104269;126504;524159;524159;-0.517;-0.398;0.750;59.0;0.0;0;0.0
08:32:25.391952;112;169793;128955;104248;126507;524159;524159;-0.522;-0.395;0.750;59.0;0.0;0;0.0
08:32:25.561933;113;169848;128965;104255;126540;524159;524159;-0.521;-0.397;0.750;59.0;0.0;0;0.0
08:32:25.561933;114;169898;128976;104270;126557;524159;524159;-0.522;-0.396;0.754;59.0;0.0;0;0.0
08:32:25.571933;115;169945;128982;104264;126577;524159;524159;-0.520;-0.395;0.752;59.0;0.0;0;0.0
08:32:25.581934;116;169977;129001;104277;126593;524159;524159;-0.528;-0.395;0.749;59.0;0.0;0;0.0
08:32:25.591935;117;170095;129010;104286;126655;524159;524159;-0.511;-0.400;0.756;59.0;0.0;0;0.0
08:32:25.761912;118;170262;129008;104273;126719;524159;524159;-0.511;-0.393;0.756;59.0;0.0;0;0.0
08:32:25.771913;119;170358;129007;104271;126724;524159;524159;-0.520;-0.393;0.752;59.0;0.0;0;0.0
08:32:25.771913;120;170377;129042;104277;126712;524159;524159;-0.520;-0.397;0.754;59.0;0.0;0;0.0
08:32:25.781911;121;170385;129062;104282;126709;524159;524159;-0.516;-0.395;0.756;59.0;0.0;0;0.0
08:32:25.781911;122;170405;129085;104287;126713;524159;524159;-0.516;-0.395;0.753;59.0;0.0;0;0.0
08:32:25.961898;123;170408;129101;104297;126699;524159;524159;-0.519;-0.395;0.752;59.0;0.0;0;0.0
08:32:25.971896;124;170403;129121;104309;126708;524159;524159;-0.512;-0.395;0.757;59.0;0.0;0;0.0
08:32:25.981894;125;170403;129133;104319;126730;524159;524159;-0.511;-0.396;0.760;59.0;0.0;0;0.0
08:32:25.981894;126;170380;129097;104299;126730;524159;524159;-0.510;-0.395;0.756;59.0;0.0;0;0.0
08:32:25.991894;127;170352;129057;104286;126739;524159;524159;-0.510;-0.396;0.757;59.0;0.0;0;0.0
08:32:26.162254;128;170343;129059;104282;126757;524159;524159;-0.510;-0.395;0.757;59.0;0.0;0;0.0
08:32:26.162254;129;170319;129076;104291;126782;524159;524159;-0.511;-0.397;0.760;59.0;0.0;0;0.0
08:32:26.182253;130;170300;129089;104298;126817;524159;524159;-0.510;-0.396;0.762;59.0;0.0;0;0.0
08:32:26.192257;131;170264;129087;104296;126839;524159;524159;-0.510;-0.394;0.757;59.0;0.0;0;0.0
08:32:26.202256;132;170238;129099;104298;126882;524159;524159;-0.510;-0.395;0.760;59.0;0.0;0;0.0
08:32:26.362233;133;170218;129103;104298;126928;524159;524159;-0.510;-0.393;0.761;59.0;0.0;0;0.0
08:32:26.362233;134;170223;129089;104293;126979;524159;524159;-0.509;-0.392;0.760;59.0;0.0;0;0.0
08:32:26.372232;135;170220;129096;104286;127025;524159;524159;-0.510;-0.391;0.760;59.0;0.0;0;0.0
08:32:26.382233;136;170231;129107;104287;127073;524159;524159;-0.510;-0.389;0.761;59.0;0.0;0;0.0
08:32:26.392231;137;170252;129113;104277;127136;524159;524159;-0.508;-0.390;0.763;59.0;0.0;0;0.0
08:32:26.562213;138;170227;129119;104280;127165;524159;524159;-0.508;-0.391;0.765;59.0;0.0;0;0.0
08:32:26.562213;139;170216;129136;104287;127214;524159;524159;-0.509;-0.390;0.764;59.0;0.0;0;0.0
08:32:26.572217;140;170210;129139;104277;127263;524159;524159;-0.508;-0.391;0.766;59.0;0.0;0;0.0
08:32:26.582212;141;170227;129122;104264;127318;524159;524159;-0.507;-0.389;0.772;59.0;0.0;0;0.0
08:32:26.592210;142;170237;129059;104227;127344;524159;524159;-0.508;-0.389;0.764;59.0;0.0;0;0.0
08:32:26.762192;143;170234;128986;104178;127357;524159;524159;-0.507;-0.389;0.764;59.0;0.0;0;0.0
08:32:26.762192;144;170207;128951;104163;127362;524159;524159;-0.508;-0.390;0.767;59.0;0.0;0;0.0
08:32:26.782191;145;170199;128941;104147;127383;524159;524159;-0.509;-0.390;0.765;59.0;0.0;0;0.0
08:32:26.792191;146;170192;128922;104120;127406;524159;524159;-0.508;-0.388;0.768;59.0;0.0;0;0.0
08:32:26.792191;147;170193;128893;104097;127429;524159;524159;-0.507;-0.385;0.769;59.0;0.0;0;0.0
08:32:26.962171;148;170214;128878;104073;127474;524159;524159;-0.507;-0.386;0.770;59.0;0.0;0;0.0
08:32:26.962171;149;170203;128854;104052;127494;524159;524159;-0.506;-0.385;0.772;59.0;0.0;0;0.0
08:32:26.972171;150;170199;128825;104036;127520;524159;524159;-0.506;-0.384;0.774;59.0;0.0;0;0.0
08:32:26.982176;151;170191;128817;104013;127530;524159;524159;-0.507;-0.386;0.768;59.0;2060.4;10;0.0
08:32:26.992169;152;170194;128813;104002;127557;524159;524159;-0.508;-0.386;0.768;59.0;0.0;0;0.0
08:32:27.162151;153;170182;128806;103986;127567;524159;524159;-0.507;-0.386;0.770;59.0;0.0;0;0.0
08:32:27.162151;154;170182;128795;103969;127583;524159;524159;-0.507;-0.386;0.769;59.0;0.0;0;0.0
08:32:27.172150;155;170188;128795;103957;127609;524159;524159;-0.507;-0.385;0.772;59.0;0.0;0;0.0
08:32:27.182149;156;170181;128777;103931;127629;524159;524159;-0.507;-0.385;0.772;59.0;0.0;0;0.0
08:32:27.192149;157;170172;128770;103920;127654;524159;524159;-0.506;-0.385;0.772;59.0;0.0;0;0.0
08:32:27.362130;158;170173;128755;103904;127677;524159;524159;-0.506;-0.384;0.773;59.0;0.0;0;0.0
08:32:27.362130;159;170178;128752;103873;127700;524159;524159;-0.506;-0.383;0.772;59.0;0.0;0;0.0
08:32:27.372130;160;170185;128733;103857;127718;524159;524159;-0.506;-0.384;0.773;59.0;0.0;0;0.0
08:32:27.382132;161;170196;128732;103845;127742;524159;524159;-0.506;-0.384;0.774;59.0;0.0;0;0.0
08:32:27.392127;162;170210;128726;103827;127762;524159;524159;-0.506;-0.381;0.773;59.0;0.0;0;0.0
08:32:27.562109;163;170223;128720;103813;127790;524159;524159;-0.506;-0.383;0.774;59.0;0.0;0;0.0
08:32:27.562109;164;170233;128727;103803;127813;524159;524159;-0.506;-0.383;0.775;59.0;0.0;0;0.0
08:32:27.572108;165;170237;128723;103792;127839;524159;524159;-0.506;-0.383;0.774;59.0;0.0;0;0.0
08:32:27.582111;166;170249;128717;103774;127857;524159;524159;-0.506;-0.384;0.774;59.0;0.0;0;0.0
08:32:27.592106;167;170248;128714;103762;127879;524159;524159;-0.506;-0.384;0.771;59.0;0.0;0;0.0
08:32:27.762087;168;170250;128717;103747;127894;524159;524159;-0.506;-0.382;0.772;59.0;0.0;0;0.0
08:32:27.762087;169;170266;128715;103734;127914;524159;524159;-0.506;-0.381;0.777;59.0;0.0;0;0.0
08:32:27.772087;170;170258;128684;103707;127913;524159;524159;-0.506;-0.381;0.776;59.0;0.0;0;0.0
08:32:27.782087;171;170256;128590;103649;127898;524159;524159;-0.506;-0.381;0.773;59.0;0.0;0;0.0
08:32:27.792086;172;170239;128513;103611;127861;524159;524159;-0.506;-0.380;0.775;59.0;0.0;0;0.0
08:32:27.962068;173;170228;128494;103595;127847;524159;524159;-0.507;-0.383;0.772;59.0;0.0;0;0.0
08:32:27.972067;174;170210;128493;103580;127838;524159;524159;-0.506;-0.384;0.774;59.0;0.0;0;0.0
08:32:27.972067;175;170198;128475;103561;127837;524159;524159;-0.506;-0.380;0.779;59.0;0.0;0;0.0
08:32:27.982066;176;170192;128464;103544;127832;524159;524159;-0.505;-0.379;0.779;59.0;0.0;0;0.0
08:32:27.992065;177;170162;128452;103535;127812;524159;524159;-0.506;-0.382;0.774;59.0;0.0;0;0.0
08:32:28.161980;178;170137;128446;103525;127800;524159;524159;-0.505;-0.383;0.777;59.0;0.0;0;0.0
08:32:28.161980;179;170106;128436;103503;127792;524159;524159;-0.505;-0.379;0.778;59.0;0.0;0;0.0
08:32:28.171980;180;170085;128433;103489;127782;524159;524159;-0.505;-0.382;0.772;59.0;0.0;0;0.0
08:32:28.181979;181;170044;128436;103487;127766;524159;524159;-0.506;-0.381;0.774;59.0;0.0;0;0.0
08:32:28.191977;182;170022;128439;103478;127754;524159;524159;-0.506;-0.380;0.776;59.0;0.0;0;0.0
08:32:28.362206;183;169997;128444;103471;127753;524159;524159;-0.506;-0.381;0.778;59.0;1153.8;50;0.0
08:32:28.372205;184;169961;128448;103467;127737;524159;524159;-0.505;-0.382;0.775;59.0;0.0;0;0.0
08:32:28.372205;185;169927;128445;103455;127728;524159;524159;-0.506;-0.381;0.775;59.0;0.0;0;0.0
08:32:28.382204;186;169910;128448;103447;127725;524159;524159;-0.506;-0.381;0.773;59.0;0.0;0;0.0
08:32:28.392204;187;169882;128452;103441;127711;524159;524159;-0.505;-0.380;0.774;59.0;0.0;0;0.0
08:32:28.562186;188;169860;128455;103433;127710;524159;524159;-0.506;-0.379;0.777;59.0;0.0;0;0.0
08:32:28.572184;189;169832;128463;103428;127707;524159;524159;-0.506;-0.381;0.775;59.0;0.0;0;0.0
08:32:28.572184;190;169798;128468;103423;127691;524159;524159;-0.506;-0.381;0.776;59.0;0.0;0;0.0
08:32:28.582183;191;169785;128479;103422;127687;524159;524159;-0.506;-0.382;0.774;59.0;0.0;0;0.0
08:32:28.592182;192;169762;128486;103418;127672;524159;524159;-0.506;-0.381;0.776;59.0;0.0;0;0.0
08:32:28.762170;193;169735;128498;103412;127654;524159;524159;-0.506;-0.379;0.776;59.0;0.0;0;0.0
08:32:28.772169;194;169715;128507;103410;127646;524159;524159;-0.507;-0.382;0.775;59.0;0.0;0;0.0
08:32:28.782168;195;169696;128513;103399;127631;524159;524159;-0.506;-0.380;0.777;59.0;0.0;0;0.0
08:32:28.782168;196;169681;128512;103403;127626;524159;524159;-0.505;-0.381;0.779;59.0;0.0;0;0.0
08:32:28.792162;197;169638;128508;103389;127597;524159;524159;-0.506;-0.381;0.776;59.0;0.0;0;0.0
08:32:28.962144;198;169618;128438;103344;127563;524159;524159;-0.506;-0.381;0.776;59.0;0.0;0;0.0
08:32:28.972143;199;169590;128361;103301;127527;524159;524159;-0.505;-0.378;0.778;59.0;0.0;0;0.0
08:32:28.972143;200;169545;128347;103292;127489;524159;524159;-0.506;-0.384;0.773;59.0;0.0;0;0.0
08:32:28.982143;201;169516;128364;103286;127476;524159;524159;-0.506;-0.383;0.776;59.0;0.0;0;0.0
08:32:28.992145;202;169498;128350;103283;127468;524159;524159;-0.505;-0.378;0.781;59.0;0.0;0;0.0
08:32:29.162129;203;169469;128344;103275;127446;524159;524159;-0.506;-0.379;0.775;59.0;0.0;0;0.0
08:32:29.182127;204;169425;128351;103268;127419;524159;524159;-0.505;-0.384;0.776;59.0;0.0;0;0.0
08:32:29.192127;205;169394;128346;103255;127402;524159;524159;-0.505;-0.382;0.780;59.0;0.0;0;0.0
08:32:29.202124;206;169369;128335;103239;127388;524159;524159;-0.505;-0.377;0.777;59.0;0.0;0;0.0
08:32:29.202124;207;169336;128335;103238;127371;524159;524159;-0.506;-0.382;0.771;59.0;0.0;0;0.0
08:32:29.362103;208;169291;128346;103230;127346;524159;524159;-0.506;-0.382;0.778;59.0;0.0;0;0.0
08:32:29.372101;209;169272;128353;103227;127330;524159;524159;-0.506;-0.381;0.777;59.0;0.0;0;0.0
08:32:29.372101;210;169249;128359;103220;127316;524159;524159;-0.506;-0.383;0.776;59.0;0.0;0;0.0
08:32:29.382100;211;169224;128364;103219;127307;524159;524159;-0.505;-0.383;0.775;59.0;0.0;0;0.0
08:32:29.392102;212;169196;128368;103215;127295;524159;524159;-0.506;-0.379;0.776;59.0;0.0;0;0.0
08:32:29.562081;213;169171;128373;103208;127279;524159;524159;-0.506;-0.380;0.776;59.0;0.0;0;0.0
08:32:29.572080;214;169147;128382;103197;127270;524159;524159;-0.505;-0.379;0.776;59.0;0.0;0;0.0
08:32:29.572080;215;169121;128375;103189;127266;524159;524159;-0.505;-0.378;0.776;59.0;0.0;0;0.0
08:32:29.582079;216;169108;128387;103188;127262;524159;524159;-0.506;-0.378;0.776;59.0;0.0;0;0.0
08:32:29.592078;217;169094;128399;103183;127257;524159;524159;-0.505;-0.381;0.777;59.0;0.0;0;0.0
08:32:29.762061;218;169072;128410;103179;127243;524159;524159;-0.506;-0.381;0.779;59.0;0.0;0;0.0
08:32:29.772060;219;169045;128416;103174;127232;524159;524159;-0.506;-0.382;0.777;59.0;0.0;0;0.0
08:32:29.772060;220;169031;128427;103175;127227;524159;524159;-0.506;-0.383;0.774;59.0;0.0;0;0.0
08:32:29.782058;221;169022;128429;103167;127227;524159;524159;-0.505;-0.380;0.780;59.0;0.0;0;0.0
08:32:29.792058;222;168991;128448;103164;127216;524159;524159;-0.506;-0.382;0.777;59.0;0.0;0;0.0
08:32:29.962041;223;168964;128412;103144;127197;524159;524159;-0.506;-0.381;0.776;59.0;0.0;0;0.0
08:32:29.972039;224;168945;128330;103088;127171;524159;524159;-0.505;-0.377;0.780;59.0;0.0;0;0.0
08:32:29.972039;225;168923;128293;103073;127147;524159;524159;-0.505;-0.381;0.775;59.0;0.0;0;0.0
08:32:29.982039;226;168895;128297;103070;127143;524159;524159;-0.506;-0.383;0.774;59.0;0.0;0;0.0
08:32:29.992037;227;168878;128300;103062;127125;524159;524159;-0.505;-0.378;0.779;59.0;0.0;0;0.0
08:32:30.162396;228;168870;128297;103057;127120;524159;524159;-0.505;-0.379;0.778;59.0;0.0;0;0.0
08:32:30.172395;229;168830;128313;103059;127098;524159;524159;-0.505;-0.383;0.773;59.0;0.0;0;0.0
08:32:30.172395;230;168807;128299;103046;127089;524159;524159;-0.505;-0.383;0.779;59.0;0.0;0;0.0
08:32:30.182394;231;168795;128292;103034;127086;524159;524159;-0.505;-0.378;0.780;59.0;0.0;0;0.0
08:32:30.192393;232;168769;128293;103024;127076;524159;524159;-0.506;-0.379;0.773;59.0;1922.2;100;0.0
08:32:30.362375;233;168739;128304;103017;127059;524159;524159;-0.505;-0.382;0.774;59.0;0.0;0;0.0
08:32:30.372373;234;168732;128311;103019;127058;524159;524159;-0.505;-0.381;0.775;58.0;0.0;0;0.0
08:32:30.372373;235;168717;128316;103004;127045;524159;524159;-0.506;-0.380;0.775;58.0;0.0;0;0.0
08:32:30.382373;236;168714;128333;103008;127048;524159;524159;-0.505;-0.382;0.778;58.0;0.0;0;0.0
08:32:30.392373;237;168696;128338;103002;127043;524159;524159;-0.506;-0.379;0.777;58.0;0.0;0;0.0
08:32:30.562354;238;168673;128341;103000;127030;524159;524159;-0.505;-0.378;0.776;58.0;0.0;0;0.0
08:32:30.572353;239;168653;128343;103002;127021;524159;524159;-0.506;-0.379;0.777;57.0;0.0;0;0.0
08:32:30.572353;240;168641;128352;102991;127018;524159;524159;-0.506;-0.380;0.775;57.0;0.0;0;0.0
08:32:30.582352;241;168630;128371;102979;127006;524159;524159;-0.506;-0.380;0.779;57.0;0.0;0;0.0
08:32:30.592350;242;168624;128367;102981;127003;524159;524159;-0.506;-0.379;0.777;57.0;0.0;0;0.0
08:32:30.762333;243;168613;128375;102972;126989;524159;524159;-0.506;-0.380;0.775;57.0;0.0;0;0.0
08:32:30.772332;244;168607;128388;102982;126983;524159;524159;-0.505;-0.381;0.774;55.0;0.0;0;0.0
08:32:30.772332;245;168595;128396;102979;126981;524159;524159;-0.505;-0.382;0.779;55.0;0.0;0;0.0
08:32:30.782331;246;168571;128404;102972;126971;524159;524159;-0.506;-0.382;0.777;55.0;0.0;0;0.0
08:32:30.792331;247;168561;128374;102945;126959;524159;524159;-0.506;-0.384;0.778;55.0;0.0;0;0.0
08:32:30.962356;248;168557;128297;102904;126936;524159;524159;-0.504;-0.377;0.780;55.0;0.0;0;0.0
08:32:30.972355;249;168533;128274;102881;126912;524159;524159;-0.505;-0.381;0.772;54.0;0.0;0;0.0
08:32:30.972355;250;168522;128270;102887;126909;524159;524159;-0.506;-0.383;0.778;54.0;0.0;0;0.0
08:32:30.982354;251;168527;128267;102880;126911;524159;524159;-0.505;-0.376;0.781;54.0;0.0;0;0.0
08:32:30.992353;252;168523;128274;102870;126909;524159;524159;-0.505;-0.378;0.779;54.0;0.0;0;0.0
08:32:31.162335;253;168503;128281;102868;126909;524159;524159;-0.505;-0.380;0.776;54.0;0.0;0;0.0
08:32:31.172334;254;168490;128279;102853;126903;524159;524159;-0.505;-0.381;0.781;52.0;0.0;0;0.0
08:32:31.172334;255;168485;128269;102839;126898;524159;524159;-0.504;-0.376;0.780;52.0;0.0;0;0.0
08:32:31.182333;256;168464;128265;102836;126885;524159;524159;-0.505;-0.380;0.775;52.0;1075.3;100;0.0
08:32:31.192331;257;168439;128270;102829;126875;524159;524159;-0.505;-0.379;0.775;52.0;0.0;0;0.0
08:32:31.362315;258;168444;128287;102831;126873;524159;524159;-0.505;-0.380;0.776;52.0;0.0;0;0.0
08:32:31.372314;259;168433;128291;102822;126861;524159;524159;-0.506;-0.381;0.777;51.0;0.0;0;0.0
08:32:31.372314;260;168422;128304;102820;126859;524159;524159;-0.505;-0.380;0.775;51.0;0.0;0;0.0
08:32:31.382313;261;168422;128315;102817;126852;524159;524159;-0.506;-0.380;0.776;51.0;0.0;0;0.0
08:32:31.392312;262;168423;128322;102818;126854;524159;524159;-0.505;-0.379;0.778;51.0;0.0;0;0.0
08:32:31.562293;263;168405;128331;102813;126840;524159;524159;-0.505;-0.379;0.778;51.0;0.0;0;0.0
08:32:31.572293;264;168400;128340;102810;126832;524159;524159;-0.505;-0.380;0.778;50.0;0.0;0;0.0
08:32:31.582297;265;168390;128344;102809;126824;524159;524159;-0.506;-0.379;0.780;50.0;0.0;0;0.0
08:32:31.582297;266;168381;128356;102811;126819;524159;524159;-0.505;-0.380;0.778;50.0;0.0;0;0.0
08:32:31.592292;267;168388;128371;102817;126813;524159;524159;-0.506;-0.383;0.775;50.0;0.0;0;0.0
08:32:31.762272;268;168386;128378;102815;126803;524159;524159;-0.506;-0.380;0.776;50.0;0.0;0;0.0
08:32:31.772271;269;168379;128389;102815;126781;524159;524159;-0.505;-0.382;0.780;50.0;0.0;0;0.0
08:32:31.772271;270;168375;128395;102807;126775;524159;524159;-0.506;-0.382;0.776;50.0;0.0;0;0.0
08:32:31.782276;271;168366;128329;102767;126746;524159;524159;-0.505;-0.378;0.781;50.0;0.0;0;0.0
08:32:31.792269;272;168355;128272;102731;126721;524159;524159;-0.504;-0.377;0.776;50.0;0.0;0;0.0
08:32:31.962252;273;168341;128264;102734;126705;524159;524159;-0.506;-0.382;0.774;50.0;0.0;0;0.0
08:32:31.972251;274;168354;128271;102726;126703;524159;524159;-0.505;-0.378;0.783;50.0;0.0;0;0.0
08:32:31.972251;275;168372;128275;102717;126700;524159;524159;-0.505;-0.377;0.778;50.0;0.0;0;0.0
08:32:31.982251;276;168362;128293;102721;126690;524159;524159;-0.505;-0.382;0.774;50.0;0.0;0;0.0
08:32:31.992249;277;168352;128298;102724;126672;524159;524159;-0.506;-0.382;0.780;50.0;0.0;0;0.0
08:32:32.162228;278;168349;128292;102706;126659;524159;524159;-0.505;-0.378;0.780;50.0;0.0;0;0.0
08:32:32.172226;279;168343;128275;102695;126645;524159;524159;-0.505;-0.377;0.777;50.0;0.0;0;0.0
08:32:32.172226;280;168325;128280;102692;126632;524159;524159;-0.506;-0.382;0.775;50.0;0.0;0;0.0
08:32:32.182226;281;168319;128289;102691;126615;524159;524159;-0.505;-0.379;0.777;50.0;0.0;0;0.0
08:32:32.192224;282;168331;128299;102684;126615;524159;524159;-0.505;-0.380;0.776;50.0;0.0;0;0.0
08:32:32.362208;283;168327;128309;102683;126606;524159;524159;-0.505;-0.381;0.778;50.0;0.0;0;0.0
08:32:32.372209;284;168329;128318;102686;126605;524159;524159;-0.506;-0.381;0.776;59.0;1012.2;100;0.0
08:32:32.382212;285;168334;128326;102677;126601;524159;524159;-0.506;-0.379;0.776;59.0;0.0;0;0.0
08:32:32.382212;286;168328;128333;102677;126599;524159;524159;-0.505;-0.379;0.777;59.0;0.0;0;0.0
08:32:32.392202;287;168331;128335;102676;126588;524159;524159;-0.506;-0.379;0.778;59.0;0.0;0;0.0
08:32:32.562185;288;168323;128344;102670;126582;524159;524159;-0.506;-0.378;0.780;59.0;0.0;0;0.0
08:32:32.572183;289;168329;128349;102669;126579;524159;524159;-0.505;-0.379;0.775;59.0;0.0;0;0.0
08:32:32.572183;290;168328;128360;102671;126573;524159;524159;-0.506;-0.380;0.775;59.0;0.0;0;0.0
08:32:32.582183;291;168334;128374;102674;126563;524159;524159;-0.505;-0.380;0.778;59.0;0.0;0;0.0
08:32:32.592181;292;168339;128384;102669;126563;524159;524159;-0.505;-0.381;0.780;59.0;0.0;0;0.0
08:32:32.772169;293;168328;128392;102663;126554;524159;524159;-0.506;-0.382;0.775;59.0;0.0;0;0.0
08:32:32.782168;294;168327;128336;102632;126547;524159;524159;-0.504;-0.378;0.780;59.0;0.0;0;0.0
08:32:32.792166;295;168325;128275;102594;126523;524159;524159;-0.504;-0.377;0.779;59.0;0.0;0;0.0
08:32:32.802166;296;168310;128274;102596;126515;524159;524159;-0.506;-0.383;0.774;59.0;0.0;0;0.0
08:32:32.802166;297;168315;128273;102592;126524;524159;524159;-0.505;-0.381;0.779;59.0;0.0;0;0.0
08:32:32.962145;298;168341;128278;102593;126531;524159;524159;-0.504;-0.378;0.779;59.0;0.0;0;0.0
08:32:32.972144;299;168343;128294;102595;126529;524159;524159;-0.505;-0.379;0.774;59.0;0.0;0;0.0
08:32:32.972144;300;168333;128302;102592;126516;524159;524159;-0.505;-0.383;0.779;59.0;0.0;0;0.0
08:32:32.982142;301;168351;128293;102584;126526;524159;524159;-0.504;-0.379;0.781;59.0;0.0;0;0.0
08:32:32.992140;302;168366;128274;102565;126520;524159;524159;-0.505;-0.380;0.776;59.0;0.0;0;0.0
08:32:33.162124;303;168355;128283;102567;126508;524159;524159;-0.506;-0.381;0.778;59.0;0.0;0;0.0
08:32:33.172122;304;168374;128294;102564;126508;524159;524159;-0.505;-0.379;0.777;59.0;0.0;0;0.0
08:32:33.172122;305;168391;128298;102565;126507;524159;524159;-0.506;-0.379;0.777;59.0;0.0;0;0.0
08:32:33.182122;306;168409;128308;102564;126508;524159;524159;-0.506;-0.382;0.777;59.0;0.0;0;0.0
08:32:33.192120;307;168427;128321;102560;126505;524159;524159;-0.505;-0.380;0.777;59.0;0.0;0;0.0
08:32:33.362103;308;168436;128331;102558;126497;524159;524159;-0.505;-0.377;0.776;59.0;0.0;0;0.0
08:32:33.372101;309;168446;128336;102557;126499;524159;524159;-0.505;-0.378;0.776;59.0;0.0;0;0.0
08:32:33.382106;310;168459;128343;102549;126493;524159;524159;-0.505;-0.378;0.780;59.0;0.0;0;0.0
08:32:33.392106;311;168471;128357;102553;126488;524159;524159;-0.506;-0.377;0.777;59.0;0.0;0;0.0
08:32:33.392106;312;168487;128367;102561;126489;524159;524159;-0.506;-0.381;0.775;59.0;0.0;0;0.0
08:32:33.562083;313;168497;128374;102559;126479;524159;524159;-0.505;-0.379;0.782;59.0;0.0;0;0.0
08:32:33.572086;314;168500;128386;102558;126475;524159;524159;-0.505;-0.381;0.779;58.0;0.0;0;0.0
08:32:33.582082;315;168499;128371;102545;126468;524159;524159;-0.506;-0.380;0.779;58.0;0.0;0;0.0
08:32:33.582082;316;168508;128314;102511;126459;524159;524159;-0.504;-0.377;0.781;58.0;0.0;0;0.0
08:32:33.592078;317;168519;128271;102489;126449;524159;524159;-0.504;-0.378;0.775;58.0;0.0;0;0.0
08:32:33.762061;318;168517;128280;102488;126443;524159;524159;-0.506;-0.383;0.776;58.0;0.0;0;0.0
08:32:33.772060;319;168540;128280;102486;126455;524159;524159;-0.504;-0.378;0.782;58.0;0.0;0;0.0
08:32:33.772060;320;168584;128288;102482;126471;524159;524159;-0.504;-0.376;0.781;58.0;0.0;0;0.0
08:32:33.782058;321;168582;128299;102498;126467;524159;524159;-0.504;-0.380;0.776;58.0;0.0;0;0.0
08:32:33.792056;322;168589;128298;102484;126461;524159;524159;-0.505;-0.381;0.778;58.0;0.0;0;0.0
08:32:33.962042;323;168617;128289;102476;126468;524159;524159;-0.503;-0.379;0.781;58.0;0.0;0;0.0
08:32:33.972039;324;168619;128282;102469;126462;524159;524159;-0.505;-0.379;0.778;58.0;0.0;0;0.0
08:32:33.982039;325;168636;128297;102463;126465;524159;524159;-0.505;-0.379;0.775;58.0;0.0;0;0.0
08:32:33.982039;326;168669;128284;102466;126467;524159;524159;-0.505;-0.378;0.776;58.0;1304.2;25;0.0
08:32:33.992038;327;168687;128300;102463;126466;524159;524159;-0.505;-0.379;0.779;58.0;0.0;0;0.0
08:32:34.162062;328;168711;128308;102461;126471;524159;524159;-0.505;-0.381;0.778;58.0;0.0;0;0.0
08:32:34.172061;329;168729;128326;102455;126468;524159;524159;-0.505;-0.376;0.778;58.0;0.0;0;0.0
08:32:34.182060;330;168745;128329;102458;126466;524159;524159;-0.505;-0.377;0.778;58.0;0.0;0;0.0
08:32:34.182060;331;168767;128334;102457;126469;524159;524159;-0.505;-0.378;0.781;58.0;0.0;0;0.0
08:32:34.192058;332;168785;128342;102455;126466;524159;524159;-0.505;-0.380;0.778;58.0;0.0;0;0.0
08:32:34.362043;333;168794;128349;102455;126454;524159;524159;-0.505;-0.381;0.776;58.0;329.0;25;0.0
08:32:34.372040;334;168812;128370;102458;126455;524159;524159;-0.505;-0.381;0.779;58.0;0.0;0;0.0
08:32:34.382040;335;168844;128382;102466;126464;524159;524159;-0.505;-0.379;0.781;58.0;0.0;0;0.0
08:32:34.382040;336;168855;128386;102467;126460;524159;524159;-0.506;-0.382;0.776;58.0;0.0;0;0.0
08:32:34.392038;337;168857;128373;102453;126444;524159;524159;-0.505;-0.382;0.777;58.0;0.0;0;0.0
08:32:34.562021;338;168876;128307;102412;126421;524159;524159;-0.504;-0.377;0.779;58.0;0.0;0;0.0
08:32:34.572019;339;168880;128277;102393;126404;524159;524159;-0.506;-0.383;0.773;61.0;0.0;0;0.0
08:32:34.582021;340;168896;128272;102392;126413;524159;524159;-0.505;-0.383;0.778;61.0;0.0;0;0.0
08:32:34.592017;341;168929;128278;102398;126421;524159;524159;-0.504;-0.379;0.782;61.0;0.0;0;0.0
08:32:34.592017;342;168959;128289;102398;126421;524159;524159;-0.505;-0.378;0.779;61.0;0.0;0;0.0
08:32:34.762000;343;168958;128302;102395;126411;524159;524159;-0.505;-0.381;0.776;61.0;0.0;0;0.0
08:32:34.771998;344;168964;128292;102388;126410;524159;524159;-0.505;-0.381;0.781;64.0;0.0;0;0.0
08:32:34.781997;345;168996;128286;102372;126415;524159;524159;-0.504;-0.376;0.781;64.0;0.0;0;0.0
08:32:34.781997;346;169004;128277;102370;126411;524159;524159;-0.506;-0.381;0.774;64.0;0.0;0;0.0
08:32:34.791995;347;169012;128285;102365;126406;524159;524159;-0.505;-0.380;0.777;64.0;0.0;0;0.0
08:32:34.961987;348;169045;128299;102364;126411;524159;524159;-0.505;-0.380;0.777;64.0;0.0;0;0.0
08:32:34.971978;349;169069;128311;102367;126415;524159;524159;-0.505;-0.381;0.777;67.0;599.1;25;0.0
08:32:34.981977;350;169079;128316;102377;126409;524159;524159;-0.506;-0.380;0.778;67.0;0.0;0;0.0
08:32:34.981977;351;169093;128335;102362;126403;524159;524159;-0.506;-0.378;0.778;67.0;0.0;0;0.0
08:32:34.991975;352;169104;128338;102355;126388;524159;524159;-0.505;-0.378;0.778;67.0;0.0;0;0.0
08:32:35.171962;353;169126;128339;102346;126381;524159;524159;-0.505;-0.378;0.780;67.0;0.0;0;0.0
08:32:35.181962;354;169134;128341;102350;126357;524159;524159;-0.505;-0.379;0.777;70.0;0.0;0;0.0
08:32:35.191959;355;169149;128345;102345;126352;524159;524159;-0.505;-0.380;0.774;70.0;0.0;0;0.0
08:32:35.201959;356;169176;128359;102346;126349;524159;524159;-0.505;-0.380;0.779;70.0;0.0;0;0.0
08:32:35.201959;357;169178;128367;102346;126333;524159;524159;-0.505;-0.382;0.778;70.0;0.0;0;0.0
08:32:35.371941;358;169191;128376;102348;126327;524159;524159;-0.506;-0.383;0.775;70.0;0.0;0;0.0
08:32:35.381940;359;169204;128316;102313;126315;524159;524159;-0.504;-0.380;0.781;73.0;0.0;0;0.0
08:32:35.381940;360;169221;128270;102286;126294;524159;524159;-0.503;-0.377;0.775;73.0;0.0;0;0.0
08:32:35.381940;361;169222;128253;102286;126279;524159;524159;-0.505;-0.384;0.772;73.0;0.0;0;0.0
08:32:35.391935;362;169240;128272;102287;126287;524159;524159;-0.505;-0.378;0.783;73.0;0.0;0;0.0
08:32:35.561918;363;169279;128264;102281;126301;524159;524159;-0.504;-0.376;0.782;73.0;0.0;0;0.0
08:32:35.571919;364;169295;128283;102289;126304;524159;524159;-0.504;-0.380;0.776;73.0;0.0;0;0.0
08:32:35.581915;365;169292;128282;102290;126288;524159;524159;-0.505;-0.383;0.778;73.0;0.0;0;0.0
08:32:35.581915;366;169326;128277;102270;126300;524159;524159;-0.504;-0.379;0.780;73.0;0.0;0;0.0
08:32:35.591913;367;169330;128260;102259;126291;524159;524159;-0.504;-0.380;0.777;73.0;0.0;0;0.0
08:32:35.771900;368;169341;128264;102256;126290;524159;524159;-0.505;-0.382;0.776;73.0;0.0;0;0.0
08:32:35.781899;369;169357;128266;102261;126288;524159;524159;-0.505;-0.378;0.777;73.0;0.0;0;0.0
08:32:35.781899;370;169390;128282;102256;126290;524159;524159;-0.505;-0.381;0.776;73.0;826.7;50;0.0
08:32:35.791892;371;169407;128296;102253;126287;524159;524159;-0.505;-0.381;0.778;73.0;0.0;0;0.0
08:32:35.801892;372;169433;128304;102253;126290;524159;524159;-0.505;-0.378;0.778;73.0;0.0;0;0.0
08:32:35.961885;373;169443;128306;102252;126291;524159;524159;-0.505;-0.377;0.779;73.0;0.0;0;0.0
08:32:35.981878;374;169456;128311;102253;126278;524159;524159;-0.505;-0.379;0.778;73.0;0.0;0;0.0
08:32:35.981878;375;169478;128322;102246;126276;524159;524159;-0.506;-0.379;0.781;73.0;0.0;0;0.0
08:32:35.991873;376;169487;128326;102246;126266;524159;524159;-0.505;-0.379;0.778;73.0;0.0;0;0.0
08:32:35.991873;377;169499;128321;102243;126256;524159;524159;-0.505;-0.380;0.776;73.0;0.0;0;0.0
08:32:36.171813;378;169526;128333;102249;126266;524159;524159;-0.505;-0.380;0.779;73.0;0.0;0;0.0
08:32:36.181815;379;169525;128343;102245;126254;524159;524159;-0.505;-0.379;0.778;72.0;0.0;0;0.0
08:32:36.191813;380;169535;128349;102246;126245;524159;524159;-0.506;-0.383;0.774;72.0;0.0;0;0.0
08:32:36.191813;381;169551;128295;102207;126233;524159;524159;-0.503;-0.380;0.782;72.0;0.0;0;0.0
08:32:36.201810;382;169563;128230;102179;126211;524159;524159;-0.504;-0.380;0.776;72.0;0.0;0;0.0
08:32:36.361792;383;169562;128229;102186;126197;524159;524159;-0.506;-0.384;0.774;72.0;0.0;0;0.0
08:32:36.371790;384;169585;128238;102182;126203;524159;524159;-0.504;-0.379;0.784;72.0;0.0;0;0.0
08:32:36.381790;385;169610;128247;102171;126203;524159;524159;-0.504;-0.376;0.780;72.0;0.0;0;0.0
08:32:36.381790;386;169606;128249;102176;126196;524159;524159;-0.505;-0.381;0.773;72.0;0.0;0;0.0
08:32:36.391787;387;169603;128253;102180;126184;524159;524159;-0.505;-0.383;0.778;72.0;0.0;0;0.0
08:32:36.571775;388;169611;128243;102170;126180;524159;524159;-0.504;-0.379;0.781;72.0;0.0;0;0.0
08:32:36.581771;389;169629;128229;102157;126182;524159;524159;-0.505;-0.379;0.776;72.0;0.0;0;0.0
08:32:36.581771;390;169621;128234;102149;126167;524159;524159;-0.506;-0.382;0.777;72.0;0.0;0;0.0
08:32:36.591769;391;169647;128232;102153;126169;524159;524159;-0.504;-0.378;0.778;72.0;0.0;0;0.0
08:32:36.591769;392;169662;128244;102153;126160;524159;524159;-0.505;-0.379;0.777;72.0;894.7;100;0.0
08:32:36.771754;393;169666;128255;102145;126153;524159;524159;-0.505;-0.381;0.779;72.0;0.0;0;0.0
08:32:36.781749;394;169676;128259;102144;126148;524159;524159;-0.505;-0.379;0.780;71.0;0.0;0;0.0
08:32:36.791746;395;169688;128263;102135;126143;524159;524159;-0.505;-0.378;0.777;71.0;0.0;0;0.0
08:32:36.791746;396;169699;128263;102136;126136;524159;524159;-0.505;-0.378;0.779;71.0;0.0;0;0.0
08:32:36.801748;397;169707;128272;102134;126124;524159;524159;-0.505;-0.379;0.778;71.0;0.0;0;0.0
08:32:36.961738;398;169710;128274;102133;126114;524159;524159;-0.506;-0.378;0.781;71.0;0.0;0;0.0
08:32:36.971728;399;169718;128282;102126;126105;524159;524159;-0.505;-0.379;0.778;71.0;0.0;0;0.0
08:32:36.981727;400;169727;128282;102131;126104;524159;524159;-0.505;-0.380;0.777;71.0;0.0;0;0.0
08:32:36.981727;401;169738;128298;102135;126098;524159;524159;-0.505;-0.382;0.778;71.0;0.0;0;0.0
08:32:36.991726;402;169744;128305;102130;126100;524159;524159;-0.505;-0.380;0.781;71.0;0.0;0;0.0
08:32:37.161717;403;169743;128308;102125;126083;524159;524159;-0.505;-0.381;0.778;71.0;0.0;0;0.0
08:32:37.171707;404;169755;128257;102102;126068;524159;524159;-0.504;-0.379;0.781;70.0;0.0;0;0.0
08:32:37.181706;405;169772;128192;102064;126049;524159;524159;-0.504;-0.376;0.781;70.0;0.0;0;0.0
08:32:37.181706;406;169761;128182;102054;126029;524159;524159;-0.506;-0.383;0.775;70.0;0.0;0;0.0
08:32:37.191704;407;169778;128180;102055;126033;524159;524159;-0.504;-0.380;0.783;70.0;0.0;0;0.0
08:32:37.361690;408;169797;128175;102048;126031;524159;524159;-0.504;-0.376;0.780;70.0;0.0;0;0.0
08:32:37.371686;409;169792;128184;102049;126019;524159;524159;-0.504;-0.379;0.776;70.0;0.0;0;0.0
08:32:37.381685;410;169774;128192;102055;126001;524159;524159;-0.505;-0.382;0.778;70.0;0.0;0;0.0
08:32:37.391689;411;169778;128167;102029;125992;524159;524159;-0.504;-0.377;0.783;70.0;0.0;0;0.0
08:32:37.391689;412;169776;128155;102022;125977;524159;524159;-0.504;-0.376;0.778;70.0;635.8;100;0.0
08:32:37.561672;413;169771;128153;102025;125965;524159;524159;-0.506;-0.380;0.778;70.0;0.0;0;0.0
08:32:37.571671;414;169772;128157;102015;125949;524159;524159;-0.505;-0.379;0.779;70.0;0.0;0;0.0
08:32:37.581663;415;169774;128162;102014;125934;524159;524159;-0.504;-0.379;0.780;70.0;0.0;0;0.0
08:32:37.581663;416;169775;128174;102016;125924;524159;524159;-0.506;-0.380;0.780;70.0;0.0;0;0.0
08:32:37.591663;417;169773;128179;102016;125910;524159;524159;-0.505;-0.378;0.779;70.0;0.0;0;0.0
08:32:37.781648;418;169760;128183;102008;125894;524159;524159;-0.505;-0.379;0.778;70.0;0.0;0;0.0
08:32:37.781648;419;169761;128187;102000;125882;524159;524159;-0.504;-0.382;0.777;70.0;0.0;0;0.0
08:32:37.781648;420;169760;128179;101996;125864;524159;524159;-0.504;-0.375;0.782;70.0;0.0;0;0.0
08:32:37.791642;421;169783;128170;101990;125848;524159;524159;-0.504;-0.370;0.781;70.0;0.0;0;0.0
08:32:37.791642;422;169796;128164;101981;125817;524159;524159;-0.503;-0.377;0.780;70.0;0.0;0;0.0
08:32:37.971630;423;169844;128147;101966;125784;524159;524159;-0.506;-0.376;0.774;70.0;0.0;0;0.0
08:32:37.981629;424;169898;128148;101959;125750;524159;524159;-0.506;-0.371;0.781;70.0;0.0;0;0.0
08:32:37.991627;425;169967;128137;101958;125713;524159;524159;-0.505;-0.375;0.782;70.0;0.0;0;0.0
08:32:37.991627;426;170025;128137;101957;125678;524159;524159;-0.505;-0.381;0.779;70.0;0.0;0;0.0
08:32:38.001623;427;170074;128111;101943;125640;524159;524159;-0.504;-0.371;0.779;70.0;0.0;0;0.0
08:32:38.161567;428;170113;128057;101921;125596;524159;524159;-0.504;-0.376;0.786;70.0;0.0;0;0.0
08:32:38.171564;429;170084;128090;101965;125573;524159;524159;-0.506;-0.390;0.764;70.0;0.0;0;0.0
08:32:38.181560;430;170050;128143;102005;125599;524159;524159;-0.500;-0.308;0.779;70.0;0.0;0;0.0
08:32:38.181560;431;169969;128205;102048;125607;524159;524159;-0.506;-0.388;0.791;70.0;0.0;0;0.0
08:32:38.191558;432;169859;128204;102040;125564;524159;524159;-0.507;-0.376;0.778;70.0;0.0;0;0.0
08:32:38.361550;433;169663;128259;102083;125523;524159;524159;-0.501;-0.391;0.766;70.0;0.0;0;0.0
08:32:38.371541;434;169529;128265;102098;125486;524159;524159;-0.502;-0.386;0.778;70.0;0.0;0;0.0
08:32:38.381538;435;169465;128270;102112;125473;524159;524159;-0.505;-0.390;0.785;70.0;0.0;0;0.0
08:32:38.381538;436;169388;128372;102180;125538;524159;524159;-0.506;-0.372;0.796;70.0;0.0;0;0.0
08:32:38.391537;437;169143;128467;102206;125615;524159;524159;-0.491;-0.336;0.735;70.0;0.0;0;0.0
08:32:38.561560;438;169028;128370;102129;125551;524159;524159;-0.505;-0.376;0.832;70.0;0.0;0;0.0
08:32:38.571556;439;168909;128380;102124;125514;524159;524159;-0.504;-0.393;0.775;70.0;1105.3;25;0.0
08:32:38.581555;440;168795;128352;102084;125492;524159;524159;-0.502;-0.378;0.765;70.0;0.0;0;0.0
08:32:38.591555;441;168697;128330;102052;125474;524159;524159;-0.504;-0.386;0.789;70.0;0.0;0;0.0
08:32:38.591555;442;168615;128317;102027;125467;524159;524159;-0.504;-0.380;0.780;70.0;0.0;0;0.0
08:32:38.761536;443;168521;128308;102013;125458;524159;524159;-0.503;-0.384;0.772;70.0;0.0;0;0.0
08:32:38.771531;444;168401;128293;101975;125436;524159;524159;-0.503;-0.385;0.780;71.0;0.0;0;0.0
08:32:38.781531;445;168295;128278;101959;125411;524159;524159;-0.503;-0.385;0.777;71.0;0.0;0;0.0
08:32:38.781531;446;168239;128266;101940;125409;524159;524159;-0.503;-0.386;0.772;71.0;0.0;0;0.0
08:32:38.791530;447;168213;128250;101925;125397;524159;524159;-0.503;-0.380;0.779;71.0;0.0;0;0.0
08:32:38.961519;448;168173;128247;101914;125372;524159;524159;-0.503;-0.384;0.781;71.0;0.0;0;0.0
08:32:38.971516;449;168094;128236;101896;125340;524159;524159;-0.504;-0.386;0.779;71.0;0.0;0;0.0
08:32:38.981514;450;168016;128189;101859;125297;524159;524159;-0.503;-0.385;0.774;71.0;0.0;0;0.0
08:32:38.981514;451;167930;128118;101815;125236;524159;524159;-0.503;-0.385;0.776;71.0;0.0;0;0.0
08:32:38.991511;452;167846;128104;101797;125183;524159;524159;-0.505;-0.388;0.776;71.0;0.0;0;0.0
08:32:39.171497;453;167780;128098;101798;125135;524159;524159;-0.505;-0.385;0.777;71.0;0.0;0;0.0
08:32:39.171497;454;167717;128090;101789;125091;524159;524159;-0.503;-0.384;0.778;72.0;0.0;0;0.0
08:32:39.181493;455;167642;128093;101788;125036;524159;524159;-0.504;-0.387;0.774;72.0;0.0;0;0.0
08:32:39.191492;456;167547;128083;101779;124977;524159;524159;-0.505;-0.386;0.775;72.0;0.0;0;0.0
08:32:39.191492;457;167467;128070;101771;124925;524159;524159;-0.504;-0.386;0.777;72.0;0.0;0;0.0
08:32:39.361481;458;167402;128042;101747;124877;524159;524159;-0.504;-0.384;0.775;72.0;940.1;25;0.0
08:32:39.371475;459;167308;128034;101751;124816;524159;524159;-0.505;-0.386;0.774;72.0;0.0;0;0.0
08:32:39.381473;460;167223;128049;101745;124762;524159;524159;-0.505;-0.387;0.772;72.0;0.0;0;0.0
08:32:39.391472;461;167147;128052;101750;124707;524159;524159;-0.504;-0.388;0.773;72.0;0.0;0;0.0
08:32:39.391472;462;167074;128064;101751;124663;524159;524159;-0.504;-0.388;0.773;72.0;0.0;0;0.0
08:32:39.571455;463;167009;128073;101755;124613;524159;524159;-0.504;-0.387;0.775;72.0;0.0;0;0.0
08:32:39.581453;464;166936;128073;101762;124568;524159;524159;-0.504;-0.386;0.774;73.0;0.0;0;0.0
08:32:39.591453;465;166882;128075;101756;124526;524159;524159;-0.505;-0.385;0.772;73.0;0.0;0;0.0
08:32:39.601452;466;166810;128078;101760;124481;524159;524159;-0.505;-0.386;0.770;73.0;0.0;0;0.0
08:32:39.601452;467;166757;128078;101761;124450;524159;524159;-0.505;-0.386;0.774;73.0;0.0;0;0.0
08:32:39.761436;468;166689;128079;101764;124412;524159;524159;-0.506;-0.388;0.775;73.0;0.0;0;0.0
08:32:39.771431;469;166613;128078;101758;124368;524159;524159;-0.506;-0.386;0.774;73.0;292.9;25;0.0
08:32:39.781427;470;166549;128036;101732;124307;524159;524159;-0.504;-0.386;0.770;73.0;0.0;0;0.0
08:32:39.791427;471;166473;127993;101711;124242;524159;524159;-0.505;-0.388;0.770;73.0;0.0;0;0.0
08:32:39.791427;472;166388;127980;101715;124166;524159;524159;-0.506;-0.389;0.773;73.0;0.0;0;0.0
08:32:39.961416;473;166336;127981;101714;124115;524159;524159;-0.505;-0.385;0.777;73.0;0.0;0;0.0
08:32:39.981410;474;166259;127977;101699;124044;524159;524159;-0.504;-0.385;0.772;73.0;0.0;0;0.0
08:32:39.991409;475;166166;127971;101704;123987;524159;524159;-0.505;-0.387;0.771;73.0;0.0;0;0.0
08:32:40.001406;476;166100;127968;101702;123934;524159;524159;-0.505;-0.386;0.775;73.0;0.0;0;0.0
08:32:40.001406;477;166033;127946;101695;123885;524159;524159;-0.505;-0.382;0.775;73.0;0.0;0;0.0
08:32:40.167042;478;165961;127945;101681;123816;524159;524159;-0.506;-0.387;0.770;73.0;0.0;0;0.0
08:32:40.177041;479;165893;127947;101685;123748;524159;524159;-0.506;-0.388;0.774;73.0;0.0;0;0.0
08:32:40.187040;480;165833;127951;101692;123694;524159;524159;-0.505;-0.386;0.774;73.0;0.0;0;0.0
08:32:40.187040;481;165761;127961;101690;123646;524159;524159;-0.505;-0.388;0.772;73.0;0.0;0;0.0
08:32:40.197035;482;165668;127969;101677;123582;524159;524159;-0.505;-0.387;0.774;73.0;0.0;0;0.0
08:32:40.367020;483;165605;127968;101673;123548;524159;524159;-0.505;-0.386;0.775;73.0;0.0;0;0.0
08:32:40.377019;484;165529;127956;101664;123507;524159;524159;-0.504;-0.388;0.776;74.0;0.0;0;0.0
08:32:40.377019;485;165441;127953;101644;123480;524159;524159;-0.503;-0.386;0.778;74.0;0.0;0;0.0
08:32:40.387018;486;165350;127942;101623;123438;524159;524159;-0.502;-0.386;0.780;74.0;0.0;0;0.0
08:32:40.397016;487;165229;127901;101584;123377;524159;524159;-0.504;-0.386;0.773;74.0;0.0;0;0.0
08:32:40.566996;488;165106;127819;101530;123295;524159;524159;-0.503;-0.386;0.776;74.0;0.0;0;0.0
08:32:40.586998;489;164992;127757;101490;123214;524159;524159;-0.503;-0.384;0.774;74.0;0.0;0;0.0
08:32:40.596997;490;164851;127724;101470;123124;524159;524159;-0.503;-0.389;0.774;74.0;0.0;0;0.0
08:32:40.596997;491;164725;127699;101448;123051;524159;524159;-0.502;-0.385;0.779;74.0;838.5;25;0.0
08:32:40.606999;492;164615;127670;101421;123005;524159;524159;-0.501;-0.384;0.779;74.0;0.0;0;0.0
08:32:40.766976;493;164487;127639;101404;122938;524159;524159;-0.501;-0.383;0.777;74.0;0.0;0;0.0
08:32:40.776973;494;164352;127615;101386;122880;524159;524159;-0.502;-0.387;0.778;73.0;0.0;0;0.0
08:32:40.776973;495;164230;127576;101352;122832;524159;524159;-0.500;-0.382;0.780;73.0;0.0;0;0.0
08:32:40.786972;496;164107;127557;101337;122777;524159;524159;-0.502;-0.384;0.780;73.0;0.0;0;0.0
08:32:40.796971;497;163991;127559;101330;122742;524159;524159;-0.501;-0.383;0.780;73.0;0.0;0;0.0
08:32:40.966957;498;163882;127553;101317;122694;524159;524159;-0.502;-0.384;0.779;73.0;0.0;0;0.0
08:32:40.976953;499;163743;127542;101302;122632;524159;524159;-0.501;-0.385;0.778;73.0;0.0;0;0.0
08:32:40.986952;500;163627;127537;101293;122575;524159;524159;-0.502;-0.385;0.779;73.0;0.0;0;0.0
08:32:40.996952;501;163502;127521;101278;122525;524159;524159;-0.501;-0.383;0.779;73.0;0.0;0;0.0
08:32:40.996952;502;163382;127518;101262;122469;524159;524159;-0.502;-0.385;0.778;73.0;0.0;0;0.0
08:32:41.166935;503;163264;127512;101258;122422;524159;524159;-0.502;-0.384;0.777;73.0;0.0;0;0.0
08:32:41.176933;504;163159;127508;101251;122384;524159;524159;-0.501;-0.384;0.780;73.0;0.0;0;0.0
08:32:41.176933;505;163055;127498;101244;122377;524159;524159;-0.501;-0.384;0.782;73.0;0.0;0;0.0
08:32:41.186932;506;162941;127476;101225;122324;524159;524159;-0.502;-0.384;0.778;73.0;0.0;0;0.0
08:32:41.196928;507;162822;127404;101187;122251;524159;524159;-0.503;-0.386;0.779;73.0;0.0;0;0.0
08:32:41.366917;508;162692;127334;101145;122139;524159;524159;-0.500;-0.382;0.780;73.0;0.0;0;0.0
08:32:41.376916;509;162544;127296;101132;122024;524159;524159;-0.501;-0.386;0.778;73.0;0.0;0;0.0
08:32:41.376916;510;162381;127275;101119;121918;524159;524159;-0.501;-0.386;0.781;73.0;0.0;0;0.0
08:32:41.386911;511;162245;127248;101101;121832;524159;524159;-0.501;-0.382;0.784;73.0;0.0;0;0.0
08:32:41.396909;512;162085;127225;101086;121725;524159;524159;-0.500;-0.383;0.780;73.0;0.0;0;0.0
08:32:41.576896;513;161905;127211;101084;121622;524159;524159;-0.501;-0.385;0.778;73.0;0.0;0;0.0
08:32:41.586895;514;161737;127193;101072;121542;524159;524159;-0.500;-0.385;0.783;73.0;0.0;0;0.0
08:32:41.596893;515;161582;127153;101050;121457;524159;524159;-0.500;-0.382;0.777;73.0;0.0;0;0.0
08:32:41.596893;516;161395;127144;101043;121367;524159;524159;-0.502;-0.385;0.775;73.0;0.0;0;0.0
08:32:41.606887;517;161232;127150;101039;121297;524159;524159;-0.502;-0.384;0.779;73.0;0.0;0;0.0
08:32:41.766872;518;161085;127135;101041;121231;524159;524159;-0.500;-0.384;0.782;73.0;0.0;0;0.0
08:32:41.776875;519;160928;127128;101037;121169;524159;524159;-0.500;-0.384;0.780;73.0;0.0;0;0.0
08:32:41.776875;520;160777;127126;101026;121121;524159;524159;-0.501;-0.384;0.780;73.0;0.0;0;0.0
08:32:41.786869;521;160614;127112;101015;121053;524159;524159;-0.501;-0.384;0.782;73.0;0.0;0;0.0
08:32:41.796867;522;160471;127104;101009;121003;524159;524159;-0.500;-0.385;0.780;73.0;0.0;0;0.0
08:32:41.966852;523;160313;127097;101007;120952;524159;524159;-0.501;-0.384;0.780;73.0;0.0;0;0.0
08:32:41.976849;524;160175;127087;100999;120908;524159;524159;-0.502;-0.385;0.779;73.0;0.0;0;0.0
08:32:41.986848;525;160031;127086;100995;120863;524159;524159;-0.500;-0.383;0.780;73.0;0.0;0;0.0
08:32:41.986848;526;159889;127088;100987;120819;524159;524159;-0.501;-0.384;0.781;73.0;0.0;0;0.0
08:32:41.996847;527;159748;127084;100990;120774;524159;524159;-0.501;-0.385;0.781;73.0;0.0;0;0.0
08:32:42.166787;528;159622;127082;100981;120752;524159;524159;-0.500;-0.384;0.779;73.0;0.0;0;0.0
08:32:42.176784;529;159499;127088;100980;120711;524159;524159;-0.501;-0.384;0.781;73.0;0.0;0;0.0
08:32:42.176784;530;159372;127097;100977;120682;524159;524159;-0.501;-0.384;0.781;73.0;0.0;0;0.0
08:32:42.186779;531;159248;127090;100979;120642;524159;524159;-0.501;-0.385;0.779;73.0;1619.0;25;0.0
08:32:42.196779;532;159123;127094;100979;120617;524159;524159;-0.500;-0.385;0.780;73.0;0.0;0;0.0
08:32:42.366766;533;159015;127093;100974;120595;524159;524159;-0.499;-0.383;0.785;73.0;0.0;0;0.0
08:32:42.376763;534;158886;127085;100967;120569;524159;524159;-0.502;-0.383;0.781;73.0;0.0;0;0.0
08:32:42.376763;535;158753;127025;100934;120516;524159;524159;-0.501;-0.385;0.780;73.0;0.0;0;0.0
08:32:42.386758;536;158622;126941;100892;120431;524159;524159;-0.500;-0.382;0.781;73.0;0.0;0;0.0
08:32:42.396761;537;158465;126893;100880;120326;524159;524159;-0.501;-0.385;0.775;73.0;0.0;0;0.0
08:32:42.566745;538;158304;126884;100877;120233;524159;524159;-0.500;-0.385;0.780;73.0;0.0;0;0.0
08:32:42.576741;539;158131;126862;100859;120146;524159;524159;-0.498;-0.382;0.782;73.0;0.0;0;0.0
08:32:42.576741;540;157965;126834;100846;120068;524159;524159;-0.499;-0.384;0.779;73.0;0.0;0;0.0
08:32:42.586739;541;157777;126815;100847;119973;524159;524159;-0.501;-0.385;0.781;73.0;0.0;0;0.0
08:32:42.596737;542;157586;126793;100839;119892;524159;524159;-0.500;-0.385;0.785;73.0;0.0;0;0.0
08:32:42.766719;543;157413;126768;100819;119821;524159;524159;-0.500;-0.380;0.783;73.0;0.0;0;0.0
08:32:42.776719;544;157221;126757;100812;119741;524159;524159;-0.501;-0.385;0.777;72.0;0.0;0;0.0
08:32:42.786717;545;157045;126745;100810;119666;524159;524159;-0.501;-0.385;0.779;72.0;0.0;0;0.0
08:32:42.796721;546;156864;126740;100816;119609;524159;524159;-0.500;-0.383;0.781;72.0;646.8;25;0.0
08:32:42.796721;547;156689;126737;100806;119547;524159;524159;-0.501;-0.384;0.780;72.0;0.0;0;0.0
08:32:42.966702;548;156446;126738;100806;119486;524159;524159;-0.500;-0.383;0.780;72.0;0.0;0;0.0
08:32:42.976701;549;156279;126727;100801;119437;524159;524159;-0.500;-0.383;0.781;72.0;0.0;0;0.0
08:32:42.976701;550;156115;126715;100797;119394;524159;524159;-0.500;-0.383;0.780;72.0;0.0;0;0.0
08:32:42.986697;551;155954;126714;100789;119349;524159;524159;-0.500;-0.382;0.783;72.0;0.0;0;0.0
08:32:42.996699;552;155795;126713;100791;119306;524159;524159;-0.500;-0.384;0.781;72.0;0.0;0;0.0
08:32:43.166681;553;155631;126710;100784;119265;524159;524159;-0.500;-0.383;0.780;72.0;0.0;0;0.0
08:32:43.176680;554;155481;126708;100786;119235;524159;524159;-0.502;-0.385;0.779;72.0;0.0;0;0.0
08:32:43.176680;555;155330;126708;100786;119202;524159;524159;-0.500;-0.384;0.780;72.0;0.0;0;0.0
08:32:43.186676;556;155183;126709;100783;119172;524159;524159;-0.500;-0.386;0.780;72.0;0.0;0;0.0
08:32:43.196678;557;155044;126711;100779;119145;524159;524159;-0.500;-0.386;0.777;72.0;0.0;0;0.0
08:32:43.366658;558;154921;126710;100780;119119;524159;524159;-0.502;-0.385;0.778;72.0;0.0;0;0.0
08:32:43.376659;559;154787;126716;100779;119101;524159;524159;-0.500;-0.385;0.782;72.0;0.0;0;0.0
08:32:43.376659;560;154663;126707;100778;119085;524159;524159;-0.501;-0.384;0.784;72.0;0.0;0;0.0
08:32:43.386654;561;154526;126690;100766;119048;524159;524159;-0.502;-0.384;0.780;72.0;0.0;0;0.0
08:32:43.396657;562;154393;126606;100727;118991;524159;524159;-0.499;-0.381;0.781;72.0;0.0;0;0.0
08:32:43.566641;563;154237;126549;100701;118893;524159;524159;-0.499;-0.384;0.780;72.0;0.0;0;0.0
08:32:43.576639;564;154067;126533;100700;118801;524159;524159;-0.501;-0.386;0.780;72.0;0.0;0;0.0
08:32:43.576639;565;153906;126521;100702;118727;524159;524159;-0.499;-0.383;0.782;72.0;0.0;0;0.0
08:32:43.586638;566;153738;126505;100695;118660;524159;524159;-0.500;-0.383;0.781;72.0;0.0;0;0.0
08:32:43.596635;567;153552;126500;100692;118580;524159;524159;-0.500;-0.384;0.780;72.0;0.0;0;0.0
08:32:43.766617;568;153385;126488;100690;118518;524159;524159;-0.499;-0.384;0.783;72.0;868.1;25;0.0
08:32:43.776614;569;153218;126464;100679;118461;524159;524159;-0.498;-0.383;0.786;72.0;0.0;0;0.0
08:32:43.786613;570;153052;126462;100676;118402;524159;524159;-0.500;-0.384;0.778;72.0;0.0;0;0.0
08:32:43.786613;571;152881;126461;100682;118343;524159;524159;-0.503;-0.385;0.778;72.0;0.0;0;0.0
08:32:43.796611;572;152716;126454;100677;118290;524159;524159;-0.501;-0.384;0.783;72.0;0.0;0;0.0
08:32:43.976599;573;152574;126455;100682;118245;524159;524159;-0.500;-0.383;0.781;72.0;0.0;0;0.0
08:32:43.986596;574;152415;126456;100683;118211;524159;524159;-0.501;-0.385;0.781;72.0;0.0;0;0.0
08:32:43.996597;575;152260;126460;100685;118170;524159;524159;-0.500;-0.385;0.780;72.0;0.0;0;0.0
08:32:43.996597;576;152128;126458;100683;118139;524159;524159;-0.500;-0.382;0.782;72.0;0.0;0;0.0
08:32:43.996597;577;151991;126452;100686;118111;524159;524159;-0.501;-0.384;0.781;72.0;0.0;0;0.0
08:32:44.166563;578;151849;126452;100678;118080;524159;524159;-0.500;-0.384;0.781;72.0;0.0;0;0.0
08:32:44.176557;579;151720;126459;100693;118061;524159;524159;-0.500;-0.385;0.782;72.0;0.0;0;0.0
08:32:44.176557;580;151590;126460;100698;118035;524159;524159;-0.500;-0.384;0.781;72.0;0.0;0;0.0
08:32:44.186557;581;151472;126465;100696;118021;524159;524159;-0.500;-0.385;0.782;72.0;0.0;0;0.0
08:32:44.196553;582;151355;126471;100698;118004;524159;524159;-0.500;-0.385;0.779;72.0;0.0;0;0.0
08:32:44.366546;583;151242;126481;100712;117989;524159;524159;-0.499;-0.385;0.778;72.0;0.0;0;0.0
08:32:44.376539;584;151129;126490;100704;117979;524159;524159;-0.498;-0.384;0.782;72.0;0.0;0;0.0
08:32:44.386539;585;151028;126502;100716;117976;524159;524159;-0.500;-0.383;0.784;72.0;0.0;0;0.0
08:32:44.386539;586;150917;126492;100713;117956;524159;524159;-0.501;-0.385;0.781;72.0;0.0;0;0.0
08:32:44.396536;587;150823;126421;100684;117929;524159;524159;-0.498;-0.383;0.782;72.0;0.0;0;0.0
08:32:44.566520;588;150704;126360;100659;117861;524159;524159;-0.499;-0.381;0.781;72.0;0.0;0;0.0
08:32:44.576519;589;150573;126351;100665;117777;524159;524159;-0.501;-0.386;0.780;72.0;0.0;0;0.0
08:32:44.586519;590;150442;126342;100659;117706;524159;524159;-0.499;-0.384;0.784;72.0;0.0;0;0.0
08:32:44.586519;591;150320;126321;100653;117644;524159;524159;-0.499;-0.382;0.783;72.0;0.0;0;0.0
08:32:44.596519;592;150187;126319;100657;117585;524159;524159;-0.500;-0.385;0.780;72.0;0.0;0;0.0
08:32:44.766500;593;150061;126308;100660;117537;524159;524159;-0.501;-0.383;0.783;72.0;0.0;0;0.0
08:32:44.776494;594;149934;126293;100642;117483;524159;524159;-0.498;-0.382;0.785;72.0;0.0;0;0.0
08:32:44.786497;595;149813;126282;100642;117429;524159;524159;-0.500;-0.380;0.781;72.0;0.0;0;0.0
08:32:44.786497;596;149688;126274;100644;117382;524159;524159;-0.501;-0.385;0.778;72.0;0.0;0;0.0
08:32:44.796496;597;149570;126273;100645;117341;524159;524159;-0.499;-0.383;0.782;72.0;0.0;0;0.0
08:32:44.966481;598;149454;126279;100647;117293;524159;524159;-0.500;-0.384;0.781;72.0;1123.7;50;0.0
08:32:44.976476;599;149352;126300;100658;117265;524159;524159;-0.501;-0.386;0.781;71.0;0.0;0;0.0
08:32:44.986476;600;149255;126296;100656;117251;524159;524159;-0.501;-0.384;0.781;71.0;0.0;0;0.0
08:32:44.986476;601;149168;126297;100663;117230;524159;524159;-0.500;-0.383;0.779;71.0;0.0;0;0.0
08:32:44.996472;602;149069;126300;100666;117199;524159;524159;-0.500;-0.384;0.782;71.0;0.0;0;0.0
08:32:45.166457;603;148978;126307;100674;117177;524159;524159;-0.500;-0.382;0.781;71.0;0.0;0;0.0
08:32:45.186455;604;148891;126308;100669;117156;524159;524159;-0.500;-0.384;0.781;71.0;0.0;0;0.0
08:32:45.196456;605;148818;126320;100682;117146;524159;524159;-0.500;-0.384;0.781;71.0;0.0;0;0.0
08:32:45.196456;606;148739;126325;100687;117133;524159;524159;-0.500;-0.384;0.782;71.0;0.0;0;0.0
08:32:45.206452;607;148667;126340;100694;117121;524159;524159;-0.499;-0.383;0.783;71.0;0.0;0;0.0
08:32:45.366438;608;148584;126356;100701;117106;524159;524159;-0.500;-0.385;0.779;71.0;0.0;0;0.0
08:32:45.376433;609;148525;126360;100711;117100;524159;524159;-0.500;-0.385;0.778;71.0;0.0;0;0.0
08:32:45.386432;610;148456;126367;100710;117090;524159;524159;-0.500;-0.385;0.782;71.0;0.0;0;0.0
08:32:45.386432;611;148394;126371;100716;117082;524159;524159;-0.502;-0.383;0.779;71.0;0.0;0;0.0
08:32:45.396431;612;148332;126353;100708;117072;524159;524159;-0.500;-0.385;0.780;71.0;0.0;0;0.0
08:32:45.566422;613;148270;126273;100670;117027;524159;524159;-0.499;-0.381;0.786;71.0;0.0;0;0.0
08:32:45.576414;614;148191;126242;100659;116953;524159;524159;-0.501;-0.385;0.778;71.0;0.0;0;0.0
08:32:45.586413;615;148116;126238;100670;116890;524159;524159;-0.500;-0.386;0.781;71.0;0.0;0;0.0
08:32:45.586413;616;148043;126234;100666;116837;524159;524159;-0.498;-0.382;0.785;71.0;0.0;0;0.0
08:32:45.596412;617;147966;126231;100670;116793;524159;524159;-0.500;-0.383;0.781;71.0;0.0;0;0.0
08:32:45.766397;618;147881;126246;100671;116749;524159;524159;-0.500;-0.383;0.780;71.0;0.0;0;0.0
08:32:45.776394;619;147802;126233;100671;116712;524159;524159;-0.500;-0.387;0.784;71.0;0.0;0;0.0
08:32:45.786390;620;147732;126205;100668;116674;524159;524159;-0.499;-0.382;0.781;71.0;0.0;0;0.0
08:32:45.796388;621;147659;126208;100668;116625;524159;524159;-0.500;-0.383;0.778;71.0;0.0;0;0.0
08:32:45.796388;622;147586;126216;100674;116577;524159;524159;-0.501;-0.384;0.781;71.0;0.0;0;0.0
08:32:45.966378;623;147520;126222;100677;116540;524159;524159;-0.500;-0.384;0.778;71.0;1056.3;100;0.0
08:32:45.976373;624;147462;126231;100689;116518;524159;524159;-0.500;-0.384;0.780;71.0;0.0;0;0.0
08:32:45.986372;625;147405;126243;100690;116503;524159;524159;-0.502;-0.385;0.780;71.0;0.0;0;0.0
08:32:45.986372;626;147346;126255;100699;116485;524159;524159;-0.500;-0.384;0.779;71.0;0.0;0;0.0
08:32:45.996371;627;147299;126260;100703;116475;524159;524159;-0.500;-0.384;0.782;71.0;0.0;0;0.0
08:32:46.166338;628;147243;126265;100709;116458;524159;524159;-0.500;-0.384;0.781;71.0;0.0;0;0.0
08:32:46.176334;629;147203;126272;100709;116461;524159;524159;-0.500;-0.383;0.781;71.0;0.0;0;0.0
08:32:46.186334;630;147165;126271;100716;116451;524159;524159;-0.500;-0.382;0.781;71.0;0.0;0;0.0
08:32:46.186334;631;147128;126282;100720;116441;524159;524159;-0.500;-0.384;0.781;71.0;0.0;0;0.0
08:32:46.196331;632;147094;126301;100732;116437;524159;524159;-0.500;-0.384;0.779;71.0;0.0;0;0.0
08:32:46.366316;633;147065;126312;100740;116440;524159;524159;-0.502;-0.384;0.780;71.0;0.0;0;0.0
08:32:46.376314;634;147043;126319;100744;116443;524159;524159;-0.498;-0.383;0.781;71.0;0.0;0;0.0
08:32:46.386314;635;147018;126332;100746;116437;524159;524159;-0.501;-0.385;0.782;71.0;0.0;0;0.0
08:32:46.386314;636;146988;126323;100748;116440;524159;524159;-0.501;-0.383;0.780;71.0;0.0;0;0.0
08:32:46.396313;637;146970;126261;100715;116417;524159;524159;-0.498;-0.380;0.785;71.0;0.0;0;0.0
08:32:46.576295;638;146948;126221;100702;116367;524159;524159;-0.499;-0.384;0.779;71.0;0.0;0;0.0
08:32:46.586294;639;146903;126214;100707;116303;524159;524159;-0.502;-0.385;0.780;71.0;0.0;0;0.0
08:32:46.596293;640;146875;126217;100717;116261;524159;524159;-0.499;-0.383;0.786;71.0;0.0;0;0.0
08:32:46.606293;641;146847;126217;100713;116227;524159;524159;-0.500;-0.384;0.784;71.0;0.0;0;0.0
08:32:46.606293;642;146786;126231;100722;116179;524159;524159;-0.500;-0.385;0.779;71.0;0.0;0;0.0
08:32:46.766279;643;146750;126229;100723;116151;524159;524159;-0.501;-0.384;0.784;71.0;0.0;0;0.0
08:32:46.776272;644;146717;126215;100720;116122;524159;524159;-0.497;-0.381;0.785;70.0;0.0;0;0.0
08:32:46.786271;645;146690;126205;100715;116090;524159;524159;-0.501;-0.381;0.781;70.0;0.0;0;0.0
08:32:46.786271;646;146644;126214;100722;116050;524159;524159;-0.501;-0.385;0.780;70.0;0.0;0;0.0
08:32:46.796266;647;146628;126221;100720;116038;524159;524159;-0.499;-0.381;0.784;70.0;0.0;0;0.0
08:32:46.976254;648;146608;126232;100731;116025;524159;524159;-0.499;-0.383;0.782;70.0;0.0;0;0.0
08:32:46.986252;649;146575;126244;100735;116009;524159;524159;-0.500;-0.384;0.782;70.0;1000.8;100;0.0
08:32:46.996251;650;146558;126255;100747;116006;524159;524159;-0.500;-0.381;0.783;70.0;0.0;0;0.0
08:32:46.996251;651;146538;126265;100740;115994;524159;524159;-0.500;-0.380;0.783;70.0;0.0;0;0.0
08:32:47.006247;652;146521;126274;100747;116004;524159;524159;-0.500;-0.382;0.783;70.0;0.0;0;0.0
08:32:47.166234;653;146497;126278;100753;116003;524159;524159;-0.499;-0.382;0.784;70.0;0.0;0;0.0
08:32:47.176229;654;146484;126287;100757;115998;524159;524159;-0.500;-0.382;0.782;70.0;0.0;0;0.0
08:32:47.186225;655;146469;126301;100767;115999;524159;524159;-0.500;-0.383;0.780;70.0;0.0;0;0.0
08:32:47.186225;656;146470;126309;100769;116011;524159;524159;-0.500;-0.384;0.780;70.0;0.0;0;0.0
08:32:47.196226;657;146467;126328;100777;116014;524159;524159;-0.498;-0.382;0.785;70.0;0.0;0;0.0
08:32:47.366214;658;146452;126331;100786;116017;524159;524159;-0.499;-0.383;0.784;70.0;0.0;0;0.0
08:32:47.376209;659;146449;126331;100784;116016;524159;524159;-0.500;-0.384;0.781;70.0;0.0;0;0.0
08:32:47.386208;660;146443;126281;100756;116000;524159;524159;-0.496;-0.382;0.785;70.0;0.0;0;0.0
08:32:47.386208;661;146429;126230;100736;115950;524159;524159;-0.500;-0.381;0.779;70.0;0.0;0;0.0
08:32:47.396205;662;146412;126229;100743;115903;524159;524159;-0.501;-0.385;0.780;70.0;0.0;0;0.0
08:32:47.566190;663;146406;126227;100748;115872;524159;524159;-0.498;-0.380;0.787;70.0;0.0;0;0.0
08:32:47.576190;664;146398;126223;100744;115845;524159;524159;-0.499;-0.382;0.783;70.0;0.0;0;0.0
08:32:47.586189;665;146378;126238;100752;115821;524159;524159;-0.499;-0.383;0.781;70.0;0.0;0;0.0
08:32:47.596189;666;146360;126231;100744;115802;524159;524159;-0.500;-0.384;0.785;70.0;0.0;0;0.0
08:32:47.596189;667;146362;126215;100734;115799;524159;524159;-0.499;-0.382;0.785;70.0;0.0;0;0.0
08:32:47.766171;668;146339;126200;100731;115762;524159;524159;-0.499;-0.382;0.780;70.0;0.0;0;0.0
08:32:47.776164;669;146305;126210;100731;115735;524159;524159;-0.501;-0.383;0.781;70.0;0.0;0;0.0
08:32:47.786164;670;146293;126216;100745;115724;524159;524159;-0.499;-0.381;0.782;70.0;0.0;0;0.0
08:32:47.786164;671;146287;126220;100744;115729;524159;524159;-0.498;-0.382;0.782;70.0;0.0;0;0.0
08:32:47.796164;672;146284;126238;100758;115732;524159;524159;-0.499;-0.383;0.784;70.0;0.0;0;0.0
08:32:47.976148;673;146277;126252;100763;115739;524159;524159;-0.499;-0.382;0.785;70.0;0.0;0;0.0
08:32:47.976148;674;146276;126260;100777;115739;524159;524159;-0.500;-0.382;0.782;70.0;1011.9;100;0.0
08:32:47.986143;675;146278;126278;100774;115746;524159;524159;-0.498;-0.383;0.784;70.0;0.0;0;0.0
08:32:47.996142;676;146294;126284;100784;115758;524159;524159;-0.499;-0.380;0.785;70.0;0.0;0;0.0
08:32:47.996142;677;146301;126291;100795;115756;524159;524159;-0.497;-0.382;0.783;70.0;0.0;0;0.0
08:32:48.166068;678;146309;126308;100794;115757;524159;524159;-0.499;-0.384;0.781;70.0;0.0;0;0.0
08:32:48.176063;679;146323;126321;100809;115766;524159;524159;-0.499;-0.383;0.782;69.0;0.0;0;0.0
08:32:48.186061;680;146346;126335;100813;115777;524159;524159;-0.500;-0.383;0.785;69.0;0.0;0;0.0
08:32:48.186061;681;146363;126343;100821;115789;524159;524159;-0.500;-0.383;0.783;69.0;0.0;0;0.0
08:32:48.196062;682;146370;126326;100819;115791;524159;524159;-0.499;-0.383;0.784;69.0;0.0;0;0.0
08:32:48.366047;683;146389;126269;100781;115765;524159;524159;-0.496;-0.383;0.784;69.0;0.0;0;0.0
08:32:48.376041;684;146392;126232;100773;115716;524159;524159;-0.500;-0.383;0.778;69.0;0.0;0;0.0
08:32:48.386041;685;146409;126241;100786;115675;524159;524159;-0.500;-0.385;0.785;69.0;0.0;0;0.0
08:32:48.386041;686;146413;126244;100784;115641;524159;524159;-0.498;-0.381;0.784;69.0;0.0;0;0.0
08:32:48.396040;687;146423;126245;100790;115616;524159;524159;-0.499;-0.383;0.781;69.0;0.0;0;0.0
08:32:48.566026;688;146424;126254;100798;115602;524159;524159;-0.500;-0.383;0.781;69.0;0.0;0;0.0
08:32:48.576025;689;146431;126248;100795;115580;524159;524159;-0.499;-0.385;0.784;69.0;0.0;0;0.0
08:32:48.586023;690;146436;126238;100789;115555;524159;524159;-0.498;-0.380;0.784;69.0;0.0;0;0.0
08:32:48.586023;691;146453;126243;100782;115536;524159;524159;-0.500;-0.383;0.780;69.0;0.0;0;0.0
08:32:48.596020;692;146461;126247;100794;115517;524159;524159;-0.500;-0.381;0.783;69.0;0.0;0;0.0
08:32:48.776005;693;146475;126256;100796;115507;524159;524159;-0.499;-0.381;0.786;69.0;0.0;0;0.0
08:32:48.786003;694;146488;126263;100804;115499;524159;524159;-0.499;-0.382;0.784;69.0;0.0;0;0.0
08:32:48.796002;695;146496;126274;100811;115498;524159;524159;-0.500;-0.382;0.784;69.0;0.0;0;0.0
08:32:48.796002;696;146508;126292;100818;115498;524159;524159;-0.499;-0.383;0.783;69.0;0.0;0;0.0
08:32:48.796002;697;146526;126299;100822;115509;524159;524159;-0.498;-0.382;0.782;69.0;0.0;0;0.0
08:32:48.975983;698;146542;126304;100831;115504;524159;524159;-0.499;-0.382;0.785;69.0;992.4;100;97.4
08:32:48.985983;699;146568;126316;100824;115506;524159;524159;-0.500;-0.382;0.784;69.0;0.0;0;97.4
08:32:48.995981;700;146587;126320;100828;115508;524159;524159;-0.499;-0.383;0.782;69.0;0.0;0;97.4
08:32:48.995981;701;146611;126340;100840;115508;524159;524159;-0.499;-0.383;0.777;69.0;0.0;0;97.4
08:32:49.005979;702;146643;126348;100850;115516;524159;524159;-0.499;-0.383;0.782;69.0;0.0;0;97.4
08:32:49.165968;703;146673;126360;100860;115522;524159;524159;-0.498;-0.383;0.785;69.0;0.0;0;97.4
08:32:49.175962;704;146704;126374;100853;115526;524159;524159;-0.499;-0.383;0.783;69.0;0.0;0;97.4
08:32:49.185961;705;146730;126375;100861;115524;524159;524159;-0.500;-0.384;0.782;69.0;0.0;0;97.4
08:32:49.195957;706;146755;126310;100835;115500;524159;524159;-0.497;-0.381;0.786;69.0;0.0;0;97.4
08:32:49.195957;707;146768;126264;100813;115447;524159;524159;-0.499;-0.382;0.781;69.0;0.0;0;97.4
08:32:49.365944;708;146775;126264;100826;115396;524159;524159;-0.500;-0.384;0.780;69.0;0.0;0;97.4
08:32:49.375942;709;146802;126284;100836;115378;524159;524159;-0.497;-0.384;0.784;68.0;0.0;0;97.4
08:32:49.385940;710;146815;126298;100837;115359;524159;524159;-0.500;-0.384;0.783;68.0;0.0;0;97.4
08:32:49.395940;711;146815;126301;100854;115330;524159;524159;-0.499;-0.384;0.779;68.0;0.0;0;97.4
08:32:49.395940;712;146798;126306;100841;115292;524159;524159;-0.499;-0.385;0.784;68.0;0.0;0;97.4
08:32:49.565923;713;146795;126300;100843;115268;524159;524159;-0.497;-0.383;0.783;68.0;0.0;0;97.4
08:32:49.575921;714;146801;126298;100837;115245;524159;524159;-0.498;-0.382;0.781;68.0;0.0;0;97.4
08:32:49.585919;715;146799;126304;100857;115221;524159;524159;-0.501;-0.385;0.782;68.0;0.0;0;97.4
08:32:49.595918;716;146806;126321;100872;115205;524159;524159;-0.500;-0.384;0.782;68.0;0.0;0;97.4
08:32:49.595918;717;146818;126337;100880;115194;524159;524159;-0.499;-0.384;0.781;68.0;0.0;0;97.4
08:32:49.765902;718;146831;126360;100899;115194;524159;524159;-0.500;-0.384;0.781;68.0;0.0;0;97.4
08:32:49.775900;719;146846;126372;100919;115209;524159;524159;-0.499;-0.384;0.780;68.0;0.0;0;97.4
08:32:49.785899;720;146862;126383;100936;115220;524159;524159;-0.500;-0.385;0.779;68.0;0.0;0;97.4
08:32:49.795895;721;146881;126402;100953;115228;524159;524159;-0.500;-0.385;0.781;68.0;880.4;100;97.4
08:32:49.795895;722;146913;126421;100969;115247;524159;524159;-0.500;-0.385;0.780;68.0;0.0;0;97.4
08:32:49.965886;723;146934;126433;100996;115263;524159;524159;-0.500;-0.385;0.777;68.0;0.0;0;97.4
08:32:49.975879;724;146956;126469;101025;115274;524159;524159;-0.499;-0.387;0.778;68.0;0.0;0;97.4
08:32:49.985879;725;146988;126490;101039;115297;524159;524159;-0.501;-0.384;0.781;68.0;0.0;0;97.4
08:32:49.995877;726;147012;126500;101058;115316;524159;524159;-0.502;-0.387;0.781;68.0;0.0;0;97.4
08:32:49.995877;727;147037;126487;101065;115334;524159;524159;-0.501;-0.386;0.779;68.0;0.0;0;97.4
08:32:50.175866;728;147067;126437;101047;115324;524159;524159;-0.499;-0.386;0.778;68.0;0.0;0;97.4
08:32:50.175866;729;147089;126436;101069;115298;524159;524159;-0.502;-0.389;0.776;68.0;0.0;0;97.4
08:32:50.185865;730;147117;126453;101077;115283;524159;524159;-0.503;-0.387;0.781;68.0;0.0;0;97.4
08:32:50.195865;731;147155;126450;101099;115284;524159;524159;-0.500;-0.384;0.781;68.0;0.0;0;97.4
08:32:50.195865;732;147183;126463;101112;115291;524159;524159;-0.500;-0.387;0.777;68.0;0.0;0;97.4
08:32:50.367401;733;147198;126490;101130;115290;524159;524159;-0.501;-0.388;0.776;68.0;0.0;0;97.4
08:32:50.377391;734;147235;126486;101137;115301;524159;524159;-0.501;-0.386;0.781;68.0;0.0;0;97.4
08:32:50.387391;735;147264;126471;101151;115293;524159;524159;-0.501;-0.385;0.777;68.0;0.0;0;97.4
08:32:50.387391;736;147302;126489;101164;115295;524159;524159;-0.501;-0.387;0.773;68.0;0.0;0;97.4
08:32:50.397387;737;147337;126502;101171;115292;524159;524159;-0.502;-0.387;0.776;68.0;0.0;0;97.4
08:32:50.565918;738;147387;126522;101194;115301;524159;524159;-0.502;-0.386;0.777;68.0;0.0;0;97.4
08:32:50.575913;739;147430;126530;101207;115307;524159;524159;-0.502;-0.386;0.778;67.0;0.0;0;97.4
08:32:50.585910;740;147488;126558;101222;115319;524159;524159;-0.501;-0.387;0.777;67.0;0.0;0;97.4
08:32:50.595912;741;147534;126571;101226;115329;524159;524159;-0.501;-0.386;0.774;67.0;0.0;0;97.4
08:32:50.595912;742;147580;126578;101232;115337;524159;524159;-0.501;-0.385;0.774;67.0;0.0;0;97.4
08:32:50.765897;743;147637;126597;101254;115350;524159;524159;-0.500;-0.386;0.777;67.0;0.0;0;97.4
08:32:50.775892;744;147688;126606;101258;115359;524159;524159;-0.502;-0.385;0.781;67.0;912.5;100;97.4
08:32:50.785890;745;147736;126621;101272;115360;524159;524159;-0.502;-0.387;0.780;67.0;0.0;0;97.4
08:32:50.795889;746;147788;126605;101248;115370;524159;524159;-0.501;-0.384;0.782;67.0;0.0;0;97.4
08:32:50.795889;747;147831;126553;101225;115339;524159;524159;-0.499;-0.385;0.779;67.0;0.0;0;97.4
08:32:50.975874;748;147863;126530;101220;115298;524159;524159;-0.501;-0.388;0.775;67.0;0.0;0;97.3
08:32:50.975874;749;147904;126529;101221;115275;524159;524159;-0.501;-0.387;0.777;67.0;0.0;0;97.3
08:32:50.985872;750;147947;126522;101211;115254;524159;524159;-0.499;-0.384;0.782;67.0;0.0;0;97.3
08:32:50.995869;751;147987;126534;101215;115247;524159;524159;-0.497;-0.385;0.779;67.0;0.0;0;97.3
08:32:51.005867;752;148020;126533;101209;115241;524159;524159;-0.500;-0.386;0.780;67.0;0.0;0;97.3
08:32:51.005867;753;148047;126525;101202;115228;524159;524159;-0.500;-0.386;0.783;67.0;0.0;0;97.3
08:32:51.375831;754;148079;126511;101192;115209;524159;524159;-0.501;-0.383;0.779;67.0;0.0;0;97.3
08:32:51.385832;755;148110;126507;101180;115196;524159;524159;-0.501;-0.386;0.777;67.0;0.0;0;97.3
08:32:51.395832;756;148148;126511;101182;115191;524159;524159;-0.500;-0.385;0.778;67.0;0.0;0;97.3
08:32:51.395832;757;148179;126512;101184;115182;524159;524159;-0.500;-0.385;0.779;67.0;0.0;0;97.3
08:32:51.405829;758;148206;126524;101181;115170;524159;524159;-0.501;-0.385;0.780;67.0;0.0;0;97.3
08:32:51.415825;759;148246;126530;101171;115164;524159;524159;-0.500;-0.385;0.782;67.0;0.0;0;97.3
08:32:51.415825;760;148281;126538;101164;115164;524159;524159;-0.500;-0.384;0.780;67.0;0.0;0;97.3
08:32:51.425823;761;148315;126523;101166;115151;524159;524159;-0.499;-0.385;0.779;67.0;0.0;0;97.3
08:32:51.435823;762;148357;126545;101167;115148;524159;524159;-0.500;-0.384;0.781;67.0;0.0;0;97.3
08:32:51.445822;763;148402;126536;101149;115145;524159;524159;-0.500;-0.383;0.783;67.0;0.0;0;97.3
08:32:51.775792;764;148428;126529;101137;115129;524159;524159;-0.502;-0.384;0.779;67.0;0.0;0;97.3
08:32:51.785789;765;148462;126482;101110;115095;524159;524159;-0.500;-0.385;0.782;67.0;0.0;0;97.3
08:32:51.795789;766;148500;126425;101076;115049;524159;524159;-0.498;-0.383;0.781;67.0;0.0;0;97.3
08:32:51.795789;767;148515;126403;101065;114985;524159;524159;-0.501;-0.385;0.779;67.0;968.8;100;97.3
08:32:51.805784;768;148533;126409;101063;114940;524159;524159;-0.500;-0.385;0.781;67.0;0.0;0;97.3
08:32:51.815784;769;148567;126400;101047;114916;524159;524159;-0.498;-0.383;0.784;67.0;0.0;0;97.3
08:32:51.815784;770;148586;126398;101055;114885;524159;524159;-0.499;-0.384;0.780;67.0;0.0;0;97.3
08:32:51.825782;771;148597;126402;101037;114849;524159;524159;-0.500;-0.384;0.782;67.0;0.0;0;97.3
08:32:51.835779;772;148603;126391;101028;114812;524159;524159;-0.499;-0.385;0.784;67.0;0.0;0;97.3
08:32:51.975771;773;148613;126367;101015;114785;524159;524159;-0.499;-0.383;0.781;67.0;0.0;0;97.3
08:32:51.975771;774;148631;126373;101005;114757;524159;524159;-0.501;-0.384;0.781;67.0;0.0;0;97.3
08:32:51.985769;775;148649;126372;101006;114742;524159;524159;-0.500;-0.383;0.781;67.0;0.0;0;97.3
08:32:51.995769;776;148653;126379;101001;114715;524159;524159;-0.499;-0.383;0.782;67.0;0.0;0;97.3
08:32:52.005768;777;148664;126384;100992;114698;524159;524159;-0.500;-0.384;0.782;67.0;0.0;0;97.3
08:32:52.005768;778;148671;126386;100993;114681;524159;524159;-0.500;-0.384;0.780;67.0;0.0;0;97.3
08:32:52.375700;779;148685;126378;100979;114664;524159;524159;-0.499;-0.383;0.783;67.0;0.0;0;97.3
08:32:52.385679;780;148703;126381;100971;114654;524159;524159;-0.499;-0.383;0.783;67.0;0.0;0;97.3
08:32:52.395678;781;148721;126389;100963;114649;524159;524159;-0.499;-0.382;0.783;67.0;0.0;0;97.3
08:32:52.395678;782;148741;126389;100957;114634;524159;524159;-0.499;-0.383;0.784;67.0;0.0;0;97.3
08:32:52.405675;783;148768;126387;100949;114628;524159;524159;-0.500;-0.382;0.782;67.0;0.0;0;97.3
08:32:52.415672;784;148785;126399;100949;114616;524159;524159;-0.500;-0.383;0.781;67.0;0.0;0;97.3
08:32:52.425673;785;148799;126399;100947;114611;524159;524159;-0.499;-0.383;0.781;67.0;0.0;0;97.3
08:32:52.425673;786;148813;126411;100942;114603;524159;524159;-0.500;-0.382;0.783;67.0;0.0;0;97.3
08:32:52.435671;787;148823;126401;100935;114596;524159;524159;-0.500;-0.383;0.783;67.0;0.0;0;97.3
08:32:52.445671;788;148835;126362;100910;114576;524159;524159;-0.499;-0.383;0.781;67.0;0.0;0;97.3
08:32:52.775639;789;148830;126294;100875;114522;524159;524159;-0.498;-0.382;0.784;67.0;832.5;100;97.3
08:32:52.785637;790;148832;126262;100856;114465;524159;524159;-0.500;-0.381;0.780;67.0;0.0;0;97.3
08:32:52.795632;791;148835;126263;100849;114414;524159;524159;-0.500;-0.382;0.784;67.0;0.0;0;97.3
08:32:52.805633;792;148839;126246;100838;114375;524159;524159;-0.498;-0.380;0.785;67.0;0.0;0;97.3
08:32:52.815632;793;148843;126237;100827;114346;524159;524159;-0.499;-0.379;0.784;67.0;0.0;0;97.3
08:32:52.815632;794;148837;126239;100823;114310;524159;524159;-0.500;-0.382;0.782;66.0;0.0;0;97.3
08:32:52.825629;795;148813;126238;100812;114265;524159;524159;-0.498;-0.383;0.788;66.0;0.0;0;97.3
08:32:52.825629;796;148814;126209;100795;114247;524159;524159;-0.497;-0.380;0.787;66.0;0.0;0;97.3
08:32:52.835629;797;148788;126200;100786;114214;524159;524159;-0.499;-0.378;0.781;66.0;0.0;0;97.3
08:32:52.975729;798;148763;126213;100783;114178;524159;524159;-0.500;-0.381;0.783;66.0;0.0;0;97.3
08:32:52.985727;799;148758;126213;100782;114163;524159;524159;-0.499;-0.382;0.783;66.0;0.0;0;97.3
08:32:52.985727;800;148748;126212;100776;114155;524159;524159;-0.499;-0.382;0.782;66.0;0.0;0;97.3
08:32:52.995727;801;148737;126222;100779;114147;524159;524159;-0.498;-0.382;0.784;66.0;0.0;0;97.3
08:32:53.005729;802;148708;126229;100779;114132;524159;524159;-0.500;-0.384;0.780;66.0;0.0;0;97.3
08:32:53.005729;803;148692;126243;100782;114133;524159;524159;-0.500;-0.383;0.781;66.0;0.0;0;97.3
08:32:53.375710;804;148687;126253;100786;114138;524159;524159;-0.500;-0.383;0.783;66.0;0.0;0;97.3
08:32:53.385686;805;148658;126261;100780;114122;524159;524159;-0.500;-0.383;0.784;66.0;0.0;0;97.3
08:32:53.395684;806;148635;126278;100799;114124;524159;524159;-0.498;-0.385;0.780;66.0;0.0;0;97.3
08:32:53.395684;807;148609;126293;100798;114123;524159;524159;-0.500;-0.384;0.781;66.0;0.0;0;97.3
08:32:53.405684;808;148587;126309;100810;114119;524159;524159;-0.500;-0.385;0.781;66.0;720.2;100;97.3
08:32:53.415681;809;148581;126321;100826;114135;524159;524159;-0.499;-0.385;0.781;66.0;0.0;0;97.3
08:32:53.425679;810;148569;126336;100843;114154;524159;524159;-0.500;-0.386;0.779;66.0;0.0;0;97.3
08:32:53.425679;811;148560;126361;100865;114169;524159;524159;-0.499;-0.386;0.781;66.0;0.0;0;97.3
08:32:53.435679;812;148562;126383;100883;114197;524159;524159;-0.499;-0.386;0.784;66.0;0.0;0;97.3
08:32:53.445679;813;148563;126382;100892;114220;524159;524159;-0.501;-0.385;0.781;66.0;0.0;0;97.3
08:32:53.775647;814;148567;126341;100891;114236;524159;524159;-0.500;-0.386;0.778;66.0;0.0;0;97.3
08:32:53.785643;815;148580;126306;100886;114226;524159;524159;-0.499;-0.385;0.777;66.0;0.0;0;97.3
08:32:53.795642;816;148565;126295;100907;114206;524159;524159;-0.502;-0.387;0.775;66.0;0.0;0;97.3
08:32:53.795642;817;148572;126319;100917;114203;524159;524159;-0.502;-0.386;0.780;66.0;0.0;0;97.3
08:32:53.805641;818;148596;126324;100938;114211;524159;524159;-0.501;-0.385;0.780;66.0;0.0;0;97.3
08:32:53.815641;819;148599;126325;100952;114211;524159;524159;-0.501;-0.385;0.778;67.0;0.0;0;97.3
08:32:53.815641;820;148581;126336;100971;114210;524159;524159;-0.501;-0.387;0.779;67.0;0.0;0;97.3
08:32:53.825640;821;148581;126341;100990;114219;524159;524159;-0.502;-0.386;0.779;67.0;0.0;0;97.3
08:32:53.835637;822;148591;126351;100994;114216;524159;524159;-0.500;-0.385;0.775;67.0;0.0;0;97.3
08:32:53.975626;823;148602;126364;101026;114213;524159;524159;-0.503;-0.387;0.773;67.0;0.0;0;97.4
08:32:53.985624;824;148612;126386;101054;114218;524159;524159;-0.503;-0.389;0.775;67.0;0.0;0;97.4
08:32:53.985624;825;148635;126420;101074;114230;524159;524159;-0.503;-0.388;0.775;67.0;750.5;100;97.4
08:32:53.995621;826;148643;126447;101098;114230;524159;524159;-0.504;-0.388;0.772;67.0;0.0;0;97.4
08:32:54.005621;827;148650;126478;101130;114245;524159;524159;-0.503;-0.388;0.775;67.0;0.0;0;97.4
08:32:54.005621;828;148667;126483;101157;114261;524159;524159;-0.503;-0.387;0.772;67.0;0.0;0;97.4
08:32:54.375561;829;148699;126513;101191;114293;524159;524159;-0.503;-0.388;0.772;67.0;0.0;0;97.4
08:32:54.385538;830;148712;126539;101213;114309;524159;524159;-0.503;-0.388;0.778;67.0;0.0;0;97.4
08:32:54.395538;831;148731;126567;101242;114329;524159;524159;-0.504;-0.389;0.777;67.0;0.0;0;97.4
08:32:54.405539;832;148756;126576;101258;114347;524159;524159;-0.505;-0.387;0.773;67.0;0.0;0;97.4
08:32:54.415535;833;148783;126546;101263;114355;524159;524159;-0.502;-0.388;0.771;67.0;0.0;0;97.4
08:32:54.415535;834;148793;126528;101269;114338;524159;524159;-0.504;-0.390;0.772;67.0;0.0;0;97.4
08:32:54.425533;835;148814;126543;101292;114332;524159;524159;-0.505;-0.391;0.773;67.0;0.0;0;97.4
08:32:54.425533;836;148850;126560;101313;114342;524159;524159;-0.503;-0.389;0.773;67.0;0.0;0;97.4
08:32:54.435532;837;148874;126573;101332;114351;524159;524159;-0.502;-0.388;0.772;67.0;0.0;0;97.4
08:32:54.445531;838;148886;126610;101361;114355;524159;524159;-0.503;-0.390;0.773;67.0;0.0;0;97.4
08:32:54.775600;839;148915;126620;101378;114374;524159;524159;-0.503;-0.388;0.775;67.0;0.0;0;97.4
08:32:54.785593;840;148944;126622;101392;114378;524159;524159;-0.504;-0.387;0.772;67.0;0.0;0;97.4
08:32:54.795596;841;148977;126625;101403;114381;524159;524159;-0.506;-0.390;0.770;67.0;0.0;0;97.4
08:32:54.805590;842;149003;126648;101429;114390;524159;524159;-0.505;-0.389;0.770;67.0;0.0;0;97.4
08:32:54.805590;843;149036;126665;101444;114407;524159;524159;-0.504;-0.390;0.771;67.0;0.0;0;97.4
08:32:54.815588;844;149074;126691;101464;114432;524159;524159;-0.504;-0.390;0.772;67.0;0.0;0;97.4
08:32:54.825587;845;149126;126702;101476;114472;524159;524159;-0.505;-0.389;0.771;67.0;0.0;0;97.4
08:32:54.825587;846;149169;126725;101491;114503;524159;524159;-0.504;-0.389;0.770;67.0;0.0;0;97.4
08:32:54.835586;847;149215;126736;101501;114530;524159;524159;-0.503;-0.389;0.775;67.0;0.0;0;97.4
08:32:54.975573;848;149269;126736;101500;114563;524159;524159;-0.504;-0.389;0.776;67.0;0.0;0;97.4
08:32:54.985572;849;149329;126705;101481;114587;524159;524159;-0.503;-0.387;0.771;67.0;0.0;0;97.4
08:32:54.985572;850;149375;126657;101461;114586;524159;524159;-0.503;-0.389;0.769;67.0;928.1;100;97.4
08:32:54.995576;851;149399;126653;101468;114573;524159;524159;-0.504;-0.391;0.771;67.0;0.0;0;97.4
08:32:55.005570;852;149447;126657;101464;114583;524159;524159;-0.503;-0.389;0.777;67.0;0.0;0;97.4
08:32:55.015571;853;149505;126647;101450;114600;524159;524159;-0.503;-0.388;0.774;67.0;0.0;0;97.4
08:32:55.375678;854;149534;126645;101454;114592;524159;524159;-0.502;-0.388;0.770;67.0;0.0;0;97.4
08:32:55.385652;855;149551;126652;101444;114583;524159;524159;-0.502;-0.388;0.777;67.0;0.0;0;97.4
08:32:55.395651;856;149601;126633;101423;114593;524159;524159;-0.502;-0.387;0.778;67.0;0.0;0;97.4
08:32:55.395651;857;149648;126624;101402;114585;524159;524159;-0.503;-0.386;0.774;67.0;0.0;0;97.4
08:32:55.405652;858;149673;126618;101397;114580;524159;524159;-0.503;-0.387;0.776;67.0;0.0;0;97.4
08:32:55.415650;859;149701;126619;101394;114576;524159;524159;-0.502;-0.387;0.775;67.0;0.0;0;97.4
08:32:55.425650;860;149724;126623;101379;114570;524159;524159;-0.502;-0.386;0.776;67.0;0.0;0;97.4
08:32:55.425650;861;149751;126631;101366;114565;524159;524159;-0.503;-0.386;0.777;67.0;0.0;0;97.4
08:32:55.435647;862;149770;126626;101369;114570;524159;524159;-0.500;-0.389;0.777;67.0;0.0;0;97.4
08:32:55.445647;863;149798;126629;101350;114568;524159;524159;-0.501;-0.386;0.781;67.0;0.0;0;97.4
08:32:55.775619;864;149816;126618;101331;114569;524159;524159;-0.503;-0.386;0.780;67.0;0.0;0;97.4
08:32:55.785611;865;149818;126560;101294;114543;524159;524159;-0.502;-0.386;0.776;67.0;0.0;0;97.4
08:32:55.795610;866;149815;126484;101248;114500;524159;524159;-0.500;-0.385;0.782;67.0;0.0;0;97.4
08:32:55.795610;867;149799;126446;101223;114455;524159;524159;-0.501;-0.386;0.777;67.0;0.0;0;97.4
08:32:55.805609;868;149771;126439;101207;114415;524159;524159;-0.502;-0.387;0.776;67.0;0.0;0;97.4
08:32:55.815608;869;149756;126425;101181;114381;524159;524159;-0.500;-0.384;0.784;67.0;0.0;0;97.4
08:32:55.815608;870;149742;126393;101157;114357;524159;524159;-0.499;-0.383;0.782;67.0;0.0;0;97.4
08:32:55.825609;871;149708;126380;101135;114317;524159;524159;-0.500;-0.386;0.777;67.0;0.0;0;97.4
08:32:55.835607;872;149681;126374;101113;114291;524159;524159;-0.500;-0.386;0.781;67.0;0.0;0;97.4
08:32:55.975593;873;149671;126344;101090;114267;524159;524159;-0.498;-0.384;0.779;67.0;0.0;0;97.5
08:32:55.985593;874;149650;126337;101078;114246;524159;524159;-0.501;-0.386;0.778;68.0;0.0;0;97.5
08:32:55.985593;875;149638;126338;101064;114229;524159;524159;-0.501;-0.385;0.781;68.0;0.0;0;97.5
08:32:55.995594;876;149625;126347;101058;114214;524159;524159;-0.500;-0.385;0.782;68.0;0.0;0;97.5
08:32:56.005590;877;149604;126343;101045;114201;524159;524159;-0.500;-0.386;0.779;68.0;0.0;0;97.5
08:32:56.015588;878;149592;126346;101030;114189;524159;524159;-0.500;-0.386;0.781;68.0;1183.2;100;97.5
08:32:56.175602;879;149585;126345;101020;114190;524159;524159;-0.500;-0.383;0.785;68.0;0.0;0;97.5
08:32:56.185598;880;149568;126342;101013;114192;524159;524159;-0.499;-0.384;0.781;68.0;0.0;0;97.5
08:32:56.185598;881;149544;126345;100994;114183;524159;524159;-0.499;-0.385;0.779;68.0;0.0;0;97.5
08:32:56.195597;882;149534;126354;100987;114189;524159;524159;-0.500;-0.386;0.779;68.0;0.0;0;97.5
08:32:56.205598;883;149528;126346;100974;114194;524159;524159;-0.499;-0.385;0.785;68.0;0.0;0;97.5
08:32:56.375581;884;149506;126328;100965;114180;524159;524159;-0.499;-0.384;0.784;68.0;0.0;0;97.5
08:32:56.385579;885;149483;126289;100924;114153;524159;524159;-0.500;-0.385;0.779;68.0;0.0;0;97.5
08:32:56.385579;886;149449;126212;100874;114087;524159;524159;-0.497;-0.384;0.782;68.0;0.0;0;97.5
08:32:56.395577;887;149426;126171;100849;114035;524159;524159;-0.500;-0.384;0.780;68.0;0.0;0;97.5
08:32:56.405576;888;149392;126165;100846;113979;524159;524159;-0.500;-0.386;0.780;68.0;0.0;0;97.5
08:32:56.575559;889;149351;126133;100816;113940;524159;524159;-0.497;-0.384;0.786;68.0;0.0;0;97.5
08:32:56.585558;890;149307;126123;100795;113890;524159;524159;-0.499;-0.383;0.781;68.0;0.0;0;97.5
08:32:56.585558;891;149255;126122;100781;113848;524159;524159;-0.500;-0.385;0.778;68.0;0.0;0;97.5
08:32:56.595556;892;149223;126111;100772;113820;524159;524159;-0.498;-0.386;0.785;68.0;0.0;0;97.5
08:32:56.605556;893;149170;126076;100743;113791;524159;524159;-0.498;-0.382;0.786;68.0;613.7;25;97.5
08:32:56.975518;894;149109;126069;100719;113756;524159;524159;-0.500;-0.384;0.776;68.0;0.0;0;97.5
08:32:56.985516;895;149057;126072;100711;113714;524159;524159;-0.501;-0.384;0.781;68.0;0.0;0;97.5
08:32:56.995516;896;149018;126066;100702;113694;524159;524159;-0.499;-0.383;0.783;68.0;0.0;0;97.5
08:32:57.005514;897;148980;126070;100682;113669;524159;524159;-0.498;-0.385;0.782;68.0;0.0;0;97.5
08:32:57.005514;898;148938;126071;100675;113648;524159;524159;-0.500;-0.384;0.781;68.0;0.0;0;97.5
08:32:57.015513;899;148892;126066;100663;113628;524159;524159;-0.500;-0.384;0.780;68.0;0.0;0;97.5
08:32:57.025511;900;148845;126059;100641;113603;524159;524159;-0.500;-0.382;0.783;68.0;0.0;0;97.5
08:32:57.025511;901;148807;126066;100634;113593;524159;524159;-0.498;-0.384;0.780;68.0;0.0;0;97.5
08:32:57.035510;902;148763;126054;100617;113583;524159;524159;-0.500;-0.382;0.781;68.0;0.0;0;97.5
08:32:57.045510;903;148721;126053;100612;113563;524159;524159;-0.498;-0.383;0.781;68.0;0.0;0;97.5
08:32:57.175497;904;148677;126067;100600;113552;524159;524159;-0.500;-0.384;0.782;68.0;0.0;0;97.5
08:32:57.185495;905;148639;126066;100586;113541;524159;524159;-0.499;-0.383;0.782;68.0;0.0;0;97.5
08:32:57.185495;906;148606;126070;100575;113536;524159;524159;-0.500;-0.382;0.783;68.0;0.0;0;97.5
08:32:57.195493;907;148572;126068;100574;113535;524159;524159;-0.498;-0.383;0.781;68.0;0.0;0;97.5
08:32:57.205494;908;148531;126073;100568;113527;524159;524159;-0.498;-0.383;0.783;68.0;0.0;0;97.5
08:32:57.375481;909;148497;126081;100554;113524;524159;524159;-0.499;-0.383;0.782;68.0;0.0;0;97.5
08:32:57.385475;910;148470;126092;100550;113524;524159;524159;-0.500;-0.384;0.782;68.0;0.0;0;97.5
08:32:57.385475;911;148442;126094;100547;113525;524159;524159;-0.498;-0.383;0.783;68.0;0.0;0;97.5
08:32:57.395475;912;148418;126095;100541;113524;524159;524159;-0.498;-0.383;0.788;68.0;0.0;0;97.5
08:32:57.405477;913;148381;126075;100521;113516;524159;524159;-0.499;-0.383;0.780;68.0;0.0;0;97.5
08:32:57.575457;914;148353;126004;100477;113485;524159;524159;-0.497;-0.383;0.783;68.0;0.0;0;97.5
08:32:57.585453;915;148326;125946;100441;113439;524159;524159;-0.496;-0.383;0.787;68.0;0.0;0;97.5
08:32:57.585453;916;148280;125934;100431;113394;524159;524159;-0.499;-0.385;0.781;68.0;0.0;0;97.5
08:32:57.605452;917;148240;125918;100426;113355;524159;524159;-0.498;-0.384;0.785;68.0;0.0;0;97.5
08:32:57.615452;918;148231;125913;100409;113335;524159;524159;-0.496;-0.381;0.785;68.0;0.0;0;97.5
08:32:57.975418;919;148185;125915;100400;113286;524159;524159;-0.498;-0.384;0.783;69.0;0.0;0;97.5
08:32:57.985414;920;148141;125900;100399;113249;524159;524159;-0.498;-0.382;0.782;69.0;0.0;0;97.5
08:32:57.995410;921;148100;125891;100391;113219;524159;524159;-0.499;-0.382;0.788;69.0;0.0;0;97.5
08:32:58.005412;922;148062;125882;100373;113187;524159;524159;-0.498;-0.380;0.785;69.0;0.0;0;97.5
08:32:58.005412;923;148012;125882;100370;113167;524159;524159;-0.499;-0.384;0.777;69.0;0.0;0;97.5
08:32:58.015409;924;147967;125882;100363;113146;524159;524159;-0.497;-0.384;0.782;69.0;1276.5;25;97.5
08:32:58.025407;925;147936;125893;100355;113135;524159;524159;-0.497;-0.383;0.785;69.0;0.0;0;97.5
08:32:58.025407;926;147903;125904;100360;113116;524159;524159;-0.500;-0.383;0.781;69.0;0.0;0;97.5
08:32:58.037020;927;147868;125916;100359;113096;524159;524159;-0.500;-0.383;0.780;69.0;0.0;0;97.5
08:32:58.047019;928;147832;125922;100351;113086;524159;524159;-0.499;-0.384;0.783;69.0;0.0;0;97.5
08:32:58.175532;929;147798;125920;100335;113076;524159;524159;-0.498;-0.383;0.782;69.0;0.0;0;97.5
08:32:58.185530;930;147774;125926;100339;113068;524159;524159;-0.497;-0.382;0.784;69.0;0.0;0;97.5
08:32:58.185530;931;147738;125924;100330;113053;524159;524159;-0.498;-0.382;0.785;69.0;0.0;0;97.5
08:32:58.195528;932;147706;125930;100330;113047;524159;524159;-0.498;-0.384;0.783;69.0;0.0;0;97.5
08:32:58.205528;933;147688;125937;100322;113046;524159;524159;-0.499;-0.381;0.786;69.0;0.0;0;97.5
08:32:58.375511;934;147662;125941;100312;113037;524159;524159;-0.498;-0.383;0.782;69.0;0.0;0;97.5
08:32:58.395508;935;147628;125952;100318;113027;524159;524159;-0.499;-0.385;0.779;69.0;0.0;0;97.5
08:32:58.395508;936;147611;125965;100318;113039;524159;524159;-0.500;-0.384;0.780;69.0;0.0;0;97.5
08:32:58.405508;937;147593;125973;100311;113042;524159;524159;-0.499;-0.381;0.784;69.0;0.0;0;97.5
08:32:58.405508;938;147579;125965;100297;113053;524159;524159;-0.500;-0.382;0.787;69.0;0.0;0;97.5
08:32:58.575490;939;147532;125938;100279;113043;524159;524159;-0.501;-0.382;0.781;69.0;0.0;0;97.5
08:32:58.585489;940;147509;125866;100245;113032;524159;524159;-0.497;-0.382;0.784;69.0;0.0;0;97.5
08:32:58.585489;941;147466;125831;100228;113002;524159;524159;-0.498;-0.382;0.783;69.0;0.0;0;97.5
08:32:58.595488;942;147412;125829;100232;112981;524159;524159;-0.500;-0.387;0.781;69.0;0.0;0;97.5
08:32:58.605487;943;147385;125843;100243;112982;524159;524159;-0.499;-0.385;0.783;69.0;0.0;0;97.5
08:32:58.985448;944;147354;125845;100247;112987;524159;524159;-0.499;-0.382;0.784;69.0;0.0;0;97.5
08:32:58.985448;945;147306;125854;100255;112967;524159;524159;-0.499;-0.384;0.780;69.0;0.0;0;97.5
08:32:58.995446;946;147266;125867;100267;112967;524159;524159;-0.500;-0.386;0.780;69.0;845.9;25;97.5
08:32:59.005446;947;147220;125866;100268;112968;524159;524159;-0.498;-0.384;0.783;69.0;0.0;0;97.5
08:32:59.015446;948;147202;125861;100284;112979;524159;524159;-0.499;-0.383;0.779;69.0;0.0;0;97.6
08:32:59.015446;949;147167;125882;100295;112982;524159;524159;-0.501;-0.386;0.779;69.0;0.0;0;97.6
08:32:59.025445;950;147135;125896;100305;112992;524159;524159;-0.501;-0.385;0.781;69.0;0.0;0;97.6
08:32:59.035447;951;147118;125925;100326;113006;524159;524159;-0.500;-0.385;0.782;69.0;0.0;0;97.6
08:32:59.035447;952;147101;125947;100350;113029;524159;524159;-0.499;-0.387;0.779;69.0;0.0;0;97.6
08:32:59.045444;953;147080;125968;100364;113049;524159;524159;-0.499;-0.387;0.782;69.0;0.0;0;97.6
08:32:59.175428;954;147072;125989;100388;113075;524159;524159;-0.500;-0.385;0.778;69.0;0.0;0;97.6
08:32:59.185426;955;147077;126008;100403;113101;524159;524159;-0.500;-0.385;0.781;69.0;0.0;0;97.6
08:32:59.185426;956;147075;126028;100419;113124;524159;524159;-0.501;-0.385;0.780;69.0;0.0;0;97.6
08:32:59.195425;957;147083;126044;100440;113146;524159;524159;-0.502;-0.386;0.776;69.0;0.0;0;97.6
08:32:59.205424;958;147089;126073;100462;113171;524159;524159;-0.502;-0.386;0.778;69.0;0.0;0;97.6
08:32:59.375410;959;147102;126091;100482;113202;524159;524159;-0.500;-0.386;0.778;69.0;0.0;0;97.6
08:32:59.385407;960;147106;126106;100492;113213;524159;524159;-0.501;-0.385;0.781;69.0;0.0;0;97.6
08:32:59.395405;961;147105;126122;100508;113235;524159;524159;-0.502;-0.386;0.777;69.0;0.0;0;97.6
08:32:59.405409;962;147121;126076;100495;113244;524159;524159;-0.500;-0.386;0.778;69.0;0.0;0;97.6
08:32:59.415404;963;147129;126043;100488;113232;524159;524159;-0.500;-0.387;0.776;69.0;0.0;0;97.6
08:32:59.575390;964;147140;126049;100509;113224;524159;524159;-0.502;-0.389;0.779;69.0;0.0;0;97.6
08:32:59.585387;965;147157;126059;100523;113227;524159;524159;-0.501;-0.386;0.779;69.0;0.0;0;97.6
08:32:59.585387;966;147178;126080;100529;113227;524159;524159;-0.501;-0.385;0.776;69.0;0.0;0;97.6
08:32:59.595384;967;147183;126090;100545;113234;524159;524159;-0.501;-0.387;0.776;69.0;0.0;0;97.6
08:32:59.605383;968;147181;126103;100568;113241;524159;524159;-0.502;-0.388;0.781;69.0;0.0;0;97.6
08:32:59.985343;969;147210;126095;100573;113255;524159;524159;-0.501;-0.385;0.780;68.0;0.0;0;97.6
08:32:59.985343;970;147221;126098;100571;113261;524159;524159;-0.502;-0.385;0.773;68.0;0.0;0;97.6
08:32:59.995342;971;147242;126122;100587;113275;524159;524159;-0.503;-0.387;0.775;68.0;0.0;0;97.6
08:33:00.005342;972;147263;126147;100613;113290;524159;524159;-0.503;-0.387;0.775;68.0;0.0;0;97.6
08:33:00.005342;973;147292;126155;100625;113307;524159;524159;-0.501;-0.388;0.778;68.0;0.0;0;97.6
08:33:00.015340;974;147330;126179;100638;113323;524159;524159;-0.503;-0.388;0.776;68.0;0.0;0;97.6
08:33:00.025339;975;147357;126200;100651;113333;524159;524159;-0.502;-0.386;0.774;68.0;0.0;0;97.6
08:33:00.035546;976;147390;126224;100672;113349;524159;524159;-0.503;-0.388;0.773;68.0;1136.6;50;97.6
08:33:00.036823;977;147433;126228;100686;113378;524159;524159;-0.500;-0.386;0.777;68.0;0.0;0;97.6
08:33:00.046820;978;147463;126249;100700;113398;524159;524159;-0.503;-0.388;0.779;68.0;0.0;0;97.6
08:33:00.175354;979;147495;126257;100703;113411;524159;524159;-0.504;-0.387;0.778;68.0;0.0;0;97.6
08:33:00.185350;980;147530;126207;100688;113418;524159;524159;-0.501;-0.386;0.777;68.0;0.0;0;97.6
08:33:00.195348;981;147549;126185;100676;113413;524159;524159;-0.502;-0.387;0.776;68.0;0.0;0;97.6
08:33:00.195348;982;147566;126191;100688;113420;524159;524159;-0.503;-0.388;0.777;68.0;0.0;0;97.6
08:33:00.205348;983;147616;126194;100694;113446;524159;524159;-0.501;-0.386;0.779;68.0;0.0;0;97.6
08:33:00.375330;984;147639;126204;100701;113458;524159;524159;-0.500;-0.385;0.775;68.0;0.0;0;97.6
08:33:00.385329;985;147650;126223;100702;113467;524159;524159;-0.501;-0.388;0.774;68.0;0.0;0;97.6
08:33:00.395330;986;147682;126235;100714;113492;524159;524159;-0.502;-0.388;0.781;68.0;0.0;0;97.6
08:33:00.405327;987;147731;126223;100706;113520;524159;524159;-0.502;-0.384;0.778;68.0;0.0;0;97.6
08:33:00.405327;988;147759;126216;100707;113533;524159;524159;-0.503;-0.387;0.773;68.0;0.0;0;97.6
08:33:00.575309;989;147786;126235;100718;113548;524159;524159;-0.502;-0.388;0.774;68.0;0.0;0;97.6
08:33:00.585307;990;147826;126248;100718;113568;524159;524159;-0.501;-0.386;0.778;68.0;0.0;0;97.6
08:33:00.595306;991;147857;126261;100729;113588;524159;524159;-0.501;-0.387;0.778;68.0;0.0;0;97.6
08:33:00.605306;992;147893;126279;100724;113606;524159;524159;-0.501;-0.387;0.776;68.0;0.0;0;97.6
08:33:00.605306;993;147939;126293;100742;113630;524159;524159;-0.503;-0.388;0.775;68.0;0.0;0;97.6
08:33:00.985266;994;147974;126312;100738;113648;524159;524159;-0.500;-0.386;0.779;68.0;0.0;0;97.6
08:33:00.985266;995;147993;126314;100740;113662;524159;524159;-0.502;-0.387;0.779;68.0;0.0;0;97.6
08:33:00.995265;996;148035;126305;100725;113675;524159;524159;-0.502;-0.385;0.777;68.0;0.0;0;97.6
08:33:01.005265;997;148069;126247;100697;113671;524159;524159;-0.500;-0.386;0.776;68.0;0.0;0;97.6
08:33:01.005265;998;148088;126223;100682;113657;524159;524159;-0.500;-0.388;0.776;68.0;0.0;0;97.6
08:33:01.015263;999;148110;126224;100691;113666;524159;524159;-0.501;-0.388;0.779;68.0;995.7;100;97.6
08:33:01.025262;1000;148155;126232;100683;113684;524159;524159;-0.500;-0.385;0.781;68.0;0.0;0;97.6
08:33:01.035260;1001;148193;126231;100676;113692;524159;524159;-0.499;-0.387;0.777;68.0;0.0;0;97.6
08:33:01.035260;1002;148203;126235;100667;113692;524159;524159;-0.499;-0.387;0.778;68.0;0.0;0;97.6
08:33:01.045260;1003;148212;126228;100655;113687;524159;524159;-0.500;-0.387;0.780;68.0;0.0;0;97.6
08:33:01.175246;1004;148247;126226;100644;113702;524159;524159;-0.499;-0.385;0.780;68.0;0.0;0;97.6
08:33:01.185248;1005;148260;126214;100635;113702;524159;524159;-0.501;-0.386;0.777;68.0;0.0;0;97.6
08:33:01.195244;1006;148280;126223;100627;113711;524159;524159;-0.500;-0.385;0.777;68.0;0.0;0;97.6
08:33:01.195244;1007;148289;126219;100619;113714;524159;524159;-0.499;-0.386;0.780;68.0;0.0;0;97.6
08:33:01.205243;1008;148299;126225;100611;113726;524159;524159;-0.500;-0.387;0.781;68.0;0.0;0;97.6
08:33:01.375229;1009;148309;126228;100592;113734;524159;524159;-0.500;-0.385;0.779;68.0;0.0;0;97.6
08:33:01.395223;1010;148315;126233;100594;113748;524159;524159;-0.498;-0.385;0.779;68.0;0.0;0;97.6
08:33:01.395223;1011;148344;126236;100583;113772;524159;524159;-0.498;-0.386;0.781;68.0;0.0;0;97.6
08:33:01.395223;1012;148352;126232;100582;113784;524159;524159;-0.498;-0.385;0.783;68.0;0.0;0;97.6
08:33:01.405224;1013;148354;126224;100564;113790;524159;524159;-0.499;-0.384;0.782;68.0;0.0;0;97.6
08:33:01.575206;1014;148354;126172;100522;113776;524159;524159;-0.499;-0.387;0.780;68.0;0.0;0;97.6
08:33:01.585203;1015;148355;126110;100488;113756;524159;524159;-0.497;-0.383;0.782;68.0;0.0;0;97.6
08:33:01.595202;1016;148356;126091;100475;113755;524159;524159;-0.498;-0.386;0.779;68.0;0.0;0;97.6
08:33:01.595202;1017;148348;126082;100462;113806;524159;524159;-0.499;-0.386;0.781;68.0;0.0;0;97.6
08:33:01.605204;1018;148397;126075;100451;113898;524159;524159;-0.499;-0.384;0.785;68.0;0.0;0;97.6
08:33:01.785183;1019;148456;126072;100448;113976;524159;524159;-0.497;-0.385;0.780;68.0;0.0;0;97.6
08:33:01.785183;1020;148506;126087;100463;114021;524159;524159;-0.497;-0.387;0.779;68.0;0.0;0;97.6
08:33:01.795184;1021;148573;126086;100472;114059;524159;524159;-0.497;-0.386;0.783;68.0;0.0;0;97.6
08:33:01.805182;1022;148624;126083;100469;114064;524159;524159;-0.500;-0.383;0.782;68.0;0.0;0;97.6
08:33:01.805182;1023;148650;126089;100461;114046;524159;524159;-0.500;-0.386;0.780;68.0;913.3;100;97.6
08:33:01.975163;1024;148660;126098;100461;114023;524159;524159;-0.500;-0.385;0.783;68.0;0.0;0;97.6
08:33:01.985162;1025;148678;126107;100467;114006;524159;524159;-0.500;-0.385;0.781;68.0;0.0;0;97.6
08:33:01.995160;1026;148679;126109;100458;113987;524159;524159;-0.498;-0.385;0.783;68.0;0.0;0;97.6
08:33:01.995160;1027;148687;126116;100443;113972;524159;524159;-0.499;-0.385;0.781;68.0;0.0;0;97.6
08:33:02.005160;1028;148689;126119;100431;113958;524159;524159;-0.499;-0.384;0.783;68.0;0.0;0;97.6
08:33:02.175179;1029;148686;126129;100437;113939;524159;524159;-0.499;-0.384;0.780;68.0;0.0;0;97.6
08:33:02.185178;1030;148688;126133;100424;113933;524159;524159;-0.498;-0.384;0.781;68.0;0.0;0;97.6
08:33:02.195177;1031;148682;126139;100421;113916;524159;524159;-0.499;-0.385;0.784;68.0;0.0;0;97.6
08:33:02.195177;1032;148677;126150;100412;113899;524159;524159;-0.500;-0.384;0.781;68.0;0.0;0;97.6
08:33:02.205176;1033;148680;126157;100414;113891;524159;524159;-0.500;-0.384;0.779;68.0;0.0;0;97.6
08:33:02.385156;1034;148684;126173;100410;113888;524159;524159;-0.500;-0.384;0.786;67.0;0.0;0;97.6
08:33:02.395157;1035;148678;126162;100396;113879;524159;524159;-0.499;-0.385;0.783;67.0;0.0;0;97.6
08:33:02.405156;1036;148664;126131;100370;113857;524159;524159;-0.499;-0.385;0.779;67.0;0.0;0;97.6
08:33:02.415158;1037;148673;126055;100334;113835;524159;524159;-0.497;-0.385;0.785;67.0;0.0;0;97.6
08:33:02.415158;1038;148675;126011;100308;113804;524159;524159;-0.499;-0.384;0.783;67.0;0.0;0;97.6
08:33:02.575141;1039;148673;126018;100311;113785;524159;524159;-0.500;-0.387;0.778;67.0;722.1;100;97.6
08:33:02.585137;1040;148680;126027;100310;113774;524159;524159;-0.497;-0.383;0.785;67.0;0.0;0;97.6
08:33:02.595136;1041;148680;126023;100295;113765;524159;524159;-0.499;-0.383;0.782;67.0;0.0;0;97.6
08:33:02.595136;1042;148672;126031;100297;113757;524159;524159;-0.499;-0.384;0.781;67.0;0.0;0;97.6
08:33:02.605135;1043;148661;126021;100291;113747;524159;524159;-0.499;-0.385;0.787;67.0;0.0;0;97.6
08:33:02.785115;1044;148669;126010;100280;113750;524159;524159;-0.496;-0.382;0.785;67.0;0.0;0;97.6
08:33:02.795115;1045;148660;126012;100269;113742;524159;524159;-0.500;-0.385;0.779;67.0;0.0;0;97.6
08:33:02.805114;1046;148648;126017;100265;113739;524159;524159;-0.499;-0.384;0.783;67.0;0.0;0;97.6
08:33:02.805114;1047;148660;126029;100258;113745;524159;524159;-0.498;-0.383;0.784;67.0;0.0;0;97.6
08:33:02.815112;1048;148672;126036;100268;113754;524159;524159;-0.499;-0.384;0.781;67.0;0.0;0;97.6
08:33:02.975111;1049;148665;126050;100260;113743;524159;524159;-0.499;-0.384;0.785;67.0;0.0;0;97.6
08:33:02.985095;1050;148675;126047;100254;113755;524159;524159;-0.498;-0.383;0.781;67.0;0.0;0;97.6
08:33:02.995093;1051;148685;126052;100248;113758;524159;524159;-0.498;-0.383;0.784;67.0;0.0;0;97.6
08:33:02.995093;1052;148683;126061;100249;113758;524159;524159;-0.497;-0.383;0.784;67.0;0.0;0;97.6
08:33:03.005093;1053;148692;126065;100244;113763;524159;524159;-0.499;-0.384;0.784;67.0;0.0;0;97.6
08:33:03.175077;1054;148696;126079;100242;113763;524159;524159;-0.499;-0.383;0.783;67.0;0.0;0;97.6
08:33:03.185076;1055;148708;126087;100234;113774;524159;524159;-0.499;-0.384;0.781;67.0;0.0;0;97.6
08:33:03.195075;1056;148705;126102;100235;113774;524159;524159;-0.499;-0.383;0.781;67.0;0.0;0;97.6
08:33:03.195075;1057;148732;126110;100236;113802;524159;524159;-0.499;-0.383;0.785;67.0;0.0;0;97.6
08:33:03.205073;1058;148734;126115;100232;113816;524159;524159;-0.496;-0.384;0.787;67.0;0.0;0;97.6
08:33:03.375057;1059;148734;126119;100226;113826;524159;524159;-0.499;-0.384;0.782;67.0;0.0;0;97.6
08:33:03.385054;1060;148738;126063;100187;113816;524159;524159;-0.497;-0.383;0.783;67.0;594.2;100;97.6
08:33:03.395053;1061;148741;125992;100157;113788;524159;524159;-0.497;-0.381;0.784;67.0;0.0;0;97.6
08:33:03.405053;1062;148740;125981;100149;113772;524159;524159;-0.499;-0.384;0.780;67.0;0.0;0;97.6
08:33:03.405053;1063;148741;125989;100152;113769;524159;524159;-0.497;-0.384;0.783;67.0;0.0;0;97.6
08:33:03.575040;1064;148745;125990;100140;113763;524159;524159;-0.498;-0.382;0.787;67.0;0.0;0;97.6
08:33:03.585033;1065;148756;125998;100147;113777;524159;524159;-0.497;-0.384;0.780;67.0;0.0;0;97.6
08:33:03.595030;1066;148769;126009;100144;113796;524159;524159;-0.499;-0.384;0.784;67.0;0.0;0;97.6
08:33:03.595030;1067;148766;125995;100143;113809;524159;524159;-0.497;-0.384;0.788;67.0;0.0;0;97.6
08:33:03.605035;1068;148779;126003;100135;113830;524159;524159;-0.497;-0.383;0.784;67.0;664.4;100;97.6
08:33:03.775017;1069;148769;126013;100123;113839;524159;524159;-0.499;-0.385;0.781;67.0;0.0;0;97.6
08:33:03.785014;1070;148772;126019;100123;113843;524159;524159;-0.498;-0.384;0.782;67.0;0.0;0;97.6
08:33:03.795012;1071;148782;126037;100121;113854;524159;524159;-0.497;-0.382;0.783;67.0;0.0;0;97.6
08:33:03.795012;1072;148791;126047;100120;113875;524159;524159;-0.499;-0.383;0.783;67.0;0.0;0;97.6
08:33:03.805011;1073;148774;126063;100114;113871;524159;524159;-0.498;-0.382;0.784;67.0;0.0;0;97.6
08:33:03.975066;1074;148778;126073;100105;113882;524159;524159;-0.498;-0.381;0.785;67.0;0.0;0;97.6
08:33:03.985059;1075;148765;126078;100104;113879;524159;524159;-0.498;-0.380;0.782;67.0;0.0;0;97.6
08:33:03.995058;1076;148769;126084;100103;113881;524159;524159;-0.498;-0.384;0.784;67.0;0.0;0;97.6
08:33:03.995058;1077;148759;126089;100093;113873;524159;524159;-0.499;-0.381;0.786;67.0;0.0;0;97.6
08:33:04.005058;1078;148759;126087;100086;113866;524159;524159;-0.497;-0.383;0.784;67.0;0.0;0;97.6
08:33:04.175072;1079;148759;126098;100084;113861;524159;524159;-0.498;-0.384;0.781;67.0;0.0;0;97.6
08:33:04.185066;1080;148769;126105;100084;113867;524159;524159;-0.497;-0.384;0.785;67.0;0.0;0;97.6
08:33:04.195064;1081;148795;126116;100087;113896;524159;524159;-0.498;-0.381;0.786;67.0;0.0;0;97.6
08:33:04.205065;1082;148805;126110;100079;113901;524159;524159;-0.498;-0.382;0.784;67.0;0.0;0;97.6
08:33:04.215069;1083;148816;126055;100043;113888;524159;524159;-0.495;-0.380;0.786;67.0;0.0;0;97.6
08:33:04.385051;1084;148821;126010;100012;113871;524159;524159;-0.498;-0.381;0.782;67.0;0.0;0;97.6
08:33:04.395049;1085;148817;126009;100006;113848;524159;524159;-0.500;-0.384;0.782;67.0;0.0;0;97.6
08:33:04.395049;1086;148814;126019;99998;113835;524159;524159;-0.497;-0.382;0.786;67.0;506.2;25;97.6
08:33:04.405044;1087;148804;126010;99986;113819;524159;524159;-0.497;-0.382;0.785;67.0;0.0;0;97.6
08:33:04.405044;1088;148781;126015;99984;113788;524159;524159;-0.497;-0.382;0.781;67.0;0.0;0;97.6
08:33:04.575035;1089;148773;126003;99980;113775;524159;524159;-0.497;-0.384;0.786;67.0;0.0;0;97.6
08:33:04.585024;1090;148793;125984;99971;113797;524159;524159;-0.497;-0.382;0.785;67.0;0.0;0;97.6
08:33:04.595023;1091;148822;125982;99964;113833;524159;524159;-0.498;-0.380;0.784;67.0;0.0;0;97.6
08:33:04.605027;1092;148837;125992;99960;113836;524159;524159;-0.500;-0.385;0.781;67.0;0.0;0;97.6
08:33:04.605027;1093;148871;126002;99949;113854;524159;524159;-0.497;-0.382;0.783;67.0;0.0;0;97.6
08:33:04.775009;1094;148877;126009;99936;113851;524159;524159;-0.496;-0.384;0.783;67.0;0.0;0;97.6
08:33:04.785003;1095;148880;126019;99931;113851;524159;524159;-0.499;-0.383;0.781;67.0;0.0;0;97.6
08:33:04.795001;1096;148880;126025;99925;113841;524159;524159;-0.499;-0.380;0.784;67.0;0.0;0;97.6
08:33:04.805002;1097;148881;126036;99904;113839;524159;524159;-0.498;-0.382;0.784;67.0;0.0;0;97.6
08:33:04.805002;1098;148894;126036;99901;113841;524159;524159;-0.498;-0.382;0.784;67.0;0.0;0;97.6
08:33:04.974989;1099;148880;126036;99885;113815;524159;524159;-0.498;-0.383;0.783;67.0;0.0;0;97.6
08:33:04.984981;1100;148866;126038;99879;113788;524159;524159;-0.498;-0.384;0.780;67.0;0.0;0;97.6
08:33:04.994979;1101;148852;126034;99880;113759;524159;524159;-0.497;-0.381;0.786;67.0;0.0;0;97.6
08:33:04.994979;1102;148854;126045;99874;113769;524159;524159;-0.499;-0.382;0.787;67.0;0.0;0;97.6
08:33:05.004980;1103;148857;126040;99882;113778;524159;524159;-0.499;-0.382;0.784;67.0;0.0;0;97.6
08:33:05.174968;1104;148858;125986;99848;113772;524159;524159;-0.494;-0.382;0.784;67.0;0.0;0;97.6
08:33:05.194965;1105;148845;125941;99821;113744;524159;524159;-0.497;-0.382;0.781;67.0;0.0;0;97.6
08:33:05.204961;1106;148844;125939;99836;113736;524159;524159;-0.499;-0.385;0.781;67.0;0.0;0;97.6
08:33:05.204961;1107;148880;125962;99849;113782;524159;524159;-0.495;-0.384;0.786;67.0;0.0;0;97.6
08:33:05.204961;1108;148920;125970;99854;113828;524159;524159;-0.496;-0.381;0.787;67.0;0.0;0;97.6
08:33:05.374947;1109;148944;125983;99861;113861;524159;524159;-0.499;-0.383;0.781;67.0;0.0;0;97.6
08:33:05.384941;1110;148950;125988;99866;113873;524159;524159;-0.499;-0.383;0.785;67.0;0.0;0;97.6
08:33:05.394940;1111;148977;125975;99859;113899;524159;524159;-0.496;-0.382;0.786;67.0;0.0;0;97.6
08:33:05.404939;1112;149018;125968;99862;113945;524159;524159;-0.498;-0.383;0.783;67.0;0.0;0;97.6
08:33:05.404939;1113;149040;125974;99874;113987;524159;524159;-0.499;-0.384;0.782;67.0;0.0;0;97.6
08:33:05.574926;1114;149085;125985;99885;114035;524159;524159;-0.496;-0.382;0.784;67.0;0.0;0;97.6
08:33:05.584920;1115;149137;125999;99891;114094;524159;524159;-0.497;-0.384;0.784;67.0;0.0;0;97.6
08:33:05.594920;1116;149182;126020;99900;114147;524159;524159;-0.498;-0.383;0.787;67.0;0.0;0;97.6
08:33:05.604919;1117;149223;126033;99903;114175;524159;524159;-0.500;-0.381;0.786;67.0;0.0;0;97.6
08:33:05.604919;1118;149261;126038;99901;114197;524159;524159;-0.498;-0.382;0.784;67.0;1402.6;25;97.6
08:33:05.774906;1119;149292;126040;99901;114213;524159;524159;-0.498;-0.381;0.783;68.0;0.0;0;97.6
08:33:05.784899;1120;149321;126051;99906;114225;524159;524159;-0.500;-0.383;0.781;68.0;0.0;0;97.6
08:33:05.794898;1121;149366;126058;99914;114257;524159;524159;-0.498;-0.382;0.786;68.0;0.0;0;97.6
08:33:05.804898;1122;149399;126069;99926;114281;524159;524159;-0.500;-0.383;0.784;68.0;0.0;0;97.6
08:33:05.804898;1123;149441;126063;99923;114317;524159;524159;-0.498;-0.382;0.782;68.0;0.0;0;97.6
08:33:05.974884;1124;149483;126004;99896;114337;524159;524159;-0.494;-0.381;0.784;68.0;0.0;0;97.6
08:33:05.984878;1125;149519;125982;99892;114341;524159;524159;-0.499;-0.383;0.782;68.0;0.0;0;97.6
08:33:05.994876;1126;149565;125995;99913;114373;524159;524159;-0.500;-0.387;0.782;68.0;0.0;0;97.6
08:33:05.994876;1127;149610;126019;99921;114407;524159;524159;-0.496;-0.381;0.788;68.0;0.0;0;97.6
08:33:06.004878;1128;149644;126027;99933;114434;524159;524159;-0.497;-0.382;0.786;68.0;0.0;0;97.6
08:33:06.176276;1129;149679;126039;99937;114460;524159;524159;-0.498;-0.382;0.783;68.0;0.0;0;97.6
08:33:06.186274;1130;149690;126035;99937;114473;524159;524159;-0.498;-0.383;0.785;68.0;0.0;0;97.6
08:33:06.196272;1131;149712;126028;99937;114508;524159;524159;-0.495;-0.381;0.783;68.0;570.1;25;97.6
08:33:06.196272;1132;149740;126033;99945;114539;524159;524159;-0.499;-0.384;0.783;68.0;0.0;0;97.6
08:33:06.206272;1133;149766;126047;99957;114556;524159;524159;-0.499;-0.383;0.784;68.0;0.0;0;97.6
08:33:06.374767;1134;149800;126062;99966;114584;524159;524159;-0.498;-0.384;0.782;68.0;0.0;0;97.6
08:33:06.384764;1135;149846;126076;99981;114618;524159;524159;-0.498;-0.384;0.784;68.0;0.0;0;97.6
08:33:06.394764;1136;149888;126097;99994;114648;524159;524159;-0.499;-0.385;0.784;68.0;0.0;0;97.6
08:33:06.394764;1137;149929;126111;100011;114681;524159;524159;-0.496;-0.384;0.782;68.0;0.0;0;97.6
08:33:06.404764;1138;149964;126135;100024;114715;524159;524159;-0.497;-0.381;0.778;68.0;0.0;0;97.6
08:33:06.574748;1139;150007;126162;100047;114745;524159;524159;-0.499;-0.384;0.783;68.0;0.0;0;97.6
08:33:06.584745;1140;150059;126174;100068;114784;524159;524159;-0.500;-0.382;0.787;68.0;0.0;0;97.6
08:33:06.594743;1141;150099;126201;100091;114815;524159;524159;-0.500;-0.384;0.783;68.0;431.8;25;97.6
08:33:06.604743;1142;150121;126190;100099;114829;524159;524159;-0.499;-0.383;0.780;68.0;0.0;0;97.6
08:33:06.604743;1143;150162;126159;100089;114841;524159;524159;-0.499;-0.384;0.779;68.0;0.0;0;97.6
08:33:06.774730;1144;150189;126146;100106;114852;524159;524159;-0.499;-0.386;0.777;68.0;0.0;0;97.6
08:33:06.784723;1145;150225;126170;100134;114887;524159;524159;-0.500;-0.387;0.781;68.0;0.0;0;97.6
08:33:06.794723;1146;150267;126185;100154;114920;524159;524159;-0.499;-0.384;0.783;68.0;0.0;0;97.6
08:33:06.814728;1147;150309;126208;100171;114950;524159;524159;-0.497;-0.384;0.779;68.0;0.0;0;97.6
08:33:06.814728;1148;150328;126235;100200;114970;524159;524159;-0.500;-0.387;0.778;68.0;0.0;0;97.6
08:33:06.974709;1149;150367;126247;100218;114999;524159;524159;-0.499;-0.384;0.781;68.0;0.0;0;97.6
08:33:06.984706;1150;150429;126251;100229;115027;524159;524159;-0.501;-0.385;0.778;68.0;0.0;0;97.6
08:33:06.994700;1151;150466;126262;100245;115048;524159;524159;-0.502;-0.385;0.777;68.0;0.0;0;97.6
08:33:07.004700;1152;150504;126285;100267;115062;524159;524159;-0.501;-0.386;0.777;68.0;0.0;0;97.6
08:33:07.004700;1153;150558;126309;100284;115092;524159;524159;-0.501;-0.386;0.778;68.0;0.0;0;97.6
08:33:07.174689;1154;150614;126338;100311;115114;524159;524159;-0.501;-0.386;0.776;68.0;0.0;0;97.6
08:33:07.184682;1155;150656;126351;100324;115138;524159;524159;-0.501;-0.386;0.777;68.0;0.0;0;97.6
08:33:07.194681;1156;150704;126378;100350;115164;524159;524159;-0.501;-0.387;0.777;68.0;0.0;0;97.6
08:33:07.204681;1157;150764;126390;100361;115196;524159;524159;-0.500;-0.385;0.782;68.0;512.2;25;97.6
08:33:07.214680;1158;150815;126406;100373;115219;524159;524159;-0.502;-0.385;0.780;68.0;0.0;0;97.6
08:33:07.374667;1159;150862;126390;100373;115237;524159;524159;-0.501;-0.383;0.776;68.0;0.0;0;97.6
08:33:07.384662;1160;150912;126353;100366;115251;524159;524159;-0.499;-0.385;0.777;68.0;0.0;0;97.6
08:33:07.394660;1161;150945;126344;100377;115254;524159;524159;-0.502;-0.387;0.778;68.0;0.0;0;97.6
08:33:07.404662;1162;151001;126357;100388;115283;524159;524159;-0.502;-0.387;0.780;68.0;0.0;0;97.6
08:33:07.404662;1163;151065;126372;100403;115316;524159;524159;-0.499;-0.385;0.777;68.0;0.0;0;97.6
08:33:07.584648;1164;151115;126387;100418;115349;524159;524159;-0.501;-0.387;0.773;68.0;0.0;0;97.6
08:33:07.604645;1165;151147;126413;100433;115360;524159;524159;-0.503;-0.389;0.777;68.0;0.0;0;97.6
08:33:07.604645;1166;151214;126416;100442;115390;524159;524159;-0.503;-0.385;0.775;68.0;0.0;0;97.6
08:33:07.604645;1167;151262;126420;100441;115408;524159;524159;-0.504;-0.387;0.773;68.0;0.0;0;97.6
08:33:07.614639;1168;151316;126426;100452;115435;524159;524159;-0.503;-0.386;0.776;68.0;0.0;0;97.6
08:33:07.774626;1169;151377;126443;100467;115461;524159;524159;-0.503;-0.388;0.777;68.0;0.0;0;97.6
08:33:07.784620;1170;151441;126450;100477;115475;524159;524159;-0.502;-0.388;0.774;68.0;0.0;0;97.6
08:33:07.794619;1171;151489;126480;100491;115492;524159;524159;-0.503;-0.388;0.773;68.0;0.0;0;97.6
08:33:07.804623;1172;151551;126500;100509;115520;524159;524159;-0.502;-0.388;0.776;68.0;0.0;0;97.6
08:33:07.814618;1173;151608;126513;100518;115542;524159;524159;-0.504;-0.388;0.780;68.0;0.0;0;97.7
08:33:07.984605;1174;151652;126513;100521;115556;524159;524159;-0.504;-0.388;0.774;68.0;0.0;0;97.7
08:33:07.994604;1175;151711;126478;100503;115560;524159;524159;-0.502;-0.386;0.774;68.0;0.0;0;97.7
08:33:07.994604;1176;151762;126429;100479;115551;524159;524159;-0.503;-0.389;0.771;68.0;0.0;0;97.7
08:33:08.004600;1177;151809;126430;100483;115542;524159;524159;-0.505;-0.389;0.772;68.0;0.0;0;97.7
08:33:08.004600;1178;151871;126433;100487;115568;524159;524159;-0.502;-0.385;0.779;68.0;0.0;0;97.7
08:33:08.184553;1179;151944;126433;100489;115586;524159;524159;-0.500;-0.386;0.776;68.0;0.0;0;97.7
08:33:08.184553;1180;151983;126445;100488;115599;524159;524159;-0.500;-0.387;0.774;68.0;0.0;0;97.7
08:33:08.194552;1181;152041;126455;100502;115610;524159;524159;-0.500;-0.387;0.781;68.0;0.0;0;97.7
08:33:08.204551;1182;152114;126445;100485;115629;524159;524159;-0.499;-0.385;0.779;68.0;0.0;0;97.7
08:33:08.204551;1183;152170;126444;100486;115635;524159;524159;-0.501;-0.386;0.775;68.0;0.0;0;97.7
08:33:08.384532;1184;152228;126456;100494;115645;524159;524159;-0.502;-0.385;0.778;68.0;0.0;0;97.7
08:33:08.384532;1185;152295;126477;100507;115657;524159;524159;-0.501;-0.386;0.777;68.0;0.0;0;97.7
08:33:08.394531;1186;152366;126502;100509;115667;524159;524159;-0.502;-0.387;0.777;68.0;0.0;0;97.7
08:33:08.404530;1187;152429;126527;100523;115675;524159;524159;-0.502;-0.387;0.776;68.0;846.5;25;97.7
08:33:08.414529;1188;152486;126539;100519;115678;524159;524159;-0.500;-0.386;0.781;68.0;0.0;0;97.7
08:33:08.584510;1189;152527;126547;100523;115676;524159;524159;-0.501;-0.387;0.781;68.0;0.0;0;97.7
08:33:08.584510;1190;152575;126521;100511;115679;524159;524159;-0.502;-0.385;0.777;68.0;0.0;0;97.7
08:33:08.594509;1191;152620;126445;100461;115664;524159;524159;-0.499;-0.384;0.782;68.0;0.0;0;97.7
08:33:08.604508;1192;152656;126403;100427;115650;524159;524159;-0.499;-0.384;0.781;68.0;0.0;0;97.7
08:33:08.604508;1193;152684;126411;100423;115651;524159;524159;-0.501;-0.388;0.779;68.0;0.0;0;97.7
08:33:08.784490;1194;152709;126403;100417;115651;524159;524159;-0.500;-0.385;0.781;68.0;0.0;0;97.7
08:33:08.784490;1195;152746;126389;100394;115663;524159;524159;-0.498;-0.383;0.782;68.0;0.0;0;97.7
08:33:08.794490;1196;152773;126384;100383;115666;524159;524159;-0.498;-0.384;0.780;68.0;0.0;0;97.7
08:33:08.804491;1197;152787;126377;100376;115672;524159;524159;-0.498;-0.386;0.783;68.0;0.0;0;97.7
08:33:08.804491;1198;152810;126358;100342;115679;524159;524159;-0.498;-0.383;0.781;68.0;0.0;0;97.7
08:33:08.984470;1199;152841;126344;100333;115687;524159;524159;-0.499;-0.384;0.779;68.0;0.0;0;97.7
08:33:08.984470;1200;152856;126341;100324;115694;524159;524159;-0.498;-0.384;0.779;68.0;0.0;0;97.7
08:33:08.994467;1201;152876;126350;100320;115694;524159;524159;-0.498;-0.384;0.781;68.0;0.0;0;97.7
08:33:09.004467;1202;152895;126361;100310;115693;524159;524159;-0.499;-0.384;0.781;68.0;0.0;0;97.7
08:33:09.004467;1203;152916;126365;100306;115699;524159;524159;-0.498;-0.385;0.779;68.0;0.0;0;97.7
08:33:09.184448;1204;152952;126368;100306;115718;524159;524159;-0.497;-0.385;0.783;68.0;0.0;0;97.7
08:33:09.184448;1205;152976;126365;100292;115730;524159;524159;-0.496;-0.383;0.787;68.0;0.0;0;97.7
08:33:09.194447;1206;152979;126357;100269;115725;524159;524159;-0.500;-0.383;0.782;68.0;0.0;0;97.7
08:33:09.204447;1207;152996;126291;100237;115705;524159;524159;-0.500;-0.385;0.779;68.0;0.0;0;97.7
08:33:09.214446;1208;153001;126238;100199;115677;524159;524159;-0.497;-0.382;0.783;68.0;0.0;0;97.7
08:33:09.384428;1209;153015;126220;100193;115661;524159;524159;-0.500;-0.384;0.781;68.0;0.0;0;97.7
08:33:09.384428;1210;153020;126211;100186;115647;524159;524159;-0.500;-0.385;0.783;68.0;0.0;0;97.7
08:33:09.394427;1211;153032;126202;100168;115641;524159;524159;-0.499;-0.380;0.785;68.0;0.0;0;97.7
08:33:09.404427;1212;153040;126197;100156;115627;524159;524159;-0.497;-0.384;0.781;68.0;0.0;0;97.7
08:33:09.414426;1213;153036;126198;100148;115612;524159;524159;-0.499;-0.385;0.783;68.0;0.0;0;97.7
08:33:09.584519;1214;153046;126186;100131;115612;524159;524159;-0.497;-0.383;0.786;68.0;0.0;0;97.7
08:33:09.584519;1215;153053;126169;100121;115598;524159;524159;-0.499;-0.383;0.782;68.0;0.0;0;97.7
08:33:09.594519;1216;153059;126184;100116;115586;524159;524159;-0.499;-0.383;0.782;68.0;0.0;0;97.7
08:33:09.604517;1217;153065;126185;100112;115581;524159;524159;-0.499;-0.383;0.785;68.0;0.0;0;97.7
08:33:09.614517;1218;153071;126195;100099;115575;524159;524159;-0.499;-0.383;0.783;68.0;1577.3;25;97.7
08:33:09.784498;1219;153075;126191;100103;115570;524159;524159;-0.499;-0.383;0.786;67.0;0.0;0;97.7
08:33:09.784498;1220;153078;126197;100100;115568;524159;524159;-0.499;-0.384;0.782;67.0;0.0;0;97.7
08:33:09.794497;1221;153080;126202;100090;115552;524159;524159;-0.498;-0.383;0.783;67.0;0.0;0;97.7
08:33:09.804496;1222;153076;126207;100082;115547;524159;524159;-0.498;-0.382;0.783;67.0;0.0;0;97.7
08:33:09.814496;1223;153079;126212;100078;115546;524159;524159;-0.498;-0.383;0.783;67.0;0.0;0;97.7
08:33:09.984477;1224;153083;126214;100070;115546;524159;524159;-0.498;-0.383;0.783;67.0;0.0;0;97.7
08:33:09.984477;1225;153086;126222;100065;115544;524159;524159;-0.498;-0.383;0.783;67.0;0.0;0;97.7
08:33:09.994476;1226;153095;126229;100064;115543;524159;524159;-0.498;-0.382;0.783;67.0;0.0;0;97.7
08:33:10.004475;1227;153097;126232;100056;115544;524159;524159;-0.498;-0.383;0.786;67.0;0.0;0;97.7
