timestmp;smpleCnt;grnCnt;led2;led3;grn2Cnt;irCnt;redCnt;accelX;accelY;accelZ;hr3;rr5;spo2
09:46:17.884250;0;105710;40613;31276;104496;104345;104395;-0.499;-0.496;0.746;60.0;0.0;0.0
09:46:17.887249;1;236691;40627;31276;234305;234273;234331;-0.480;-0.505;0.756;60.0;0.0;0.0
09:46:17.891250;2;276808;40633;31286;250026;365399;365452;-0.463;-0.524;0.744;60.0;0.0;0.0
09:46:17.894245;3;234359;40622;31289;206033;490580;490640;-0.452;-0.503;0.741;60.0;0.0;0.0
09:46:17.897243;4;193999;40618;31300;172936;521087;521087;-0.460;-0.486;0.755;60.0;0.0;0.0
09:46:17.900241;5;178702;40619;31279;158210;521087;521087;-0.469;-0.485;0.760;60.0;0.0;0.0
09:46:17.901544;6;174813;40614;31276;154710;521087;521087;-0.463;-0.499;0.750;60.0;0.0;0.0
09:46:17.909097;7;174696;40612;31266;154640;521087;521087;-0.462;-0.498;0.749;60.0;0.0;0.0
09:46:17.909097;8;174573;40606;31256;154585;521087;521087;-0.470;-0.495;0.750;60.0;0.0;0.0
09:46:17.909097;9;174460;40593;31243;154549;521087;521087;-0.478;-0.496;0.747;60.0;0.0;0.0
09:46:17.909097;10;174345;40587;31239;154517;521087;521087;-0.479;-0.498;0.747;60.0;0.0;0.0
09:46:17.919528;11;174258;40586;31235;154494;521087;521087;-0.475;-0.498;0.747;60.0;0.0;0.0
09:46:17.919528;12;174136;73784;59115;154423;521087;521087;-0.470;-0.499;0.749;60.0;0.0;0.0
09:46:17.925396;13;174052;79204;59656;154379;521087;521087;-0.468;-0.500;0.748;60.0;0.0;0.0
09:46:17.929428;14;173974;79191;59649;154340;521087;521087;-0.466;-0.499;0.749;60.0;0.0;0.0
09:46:17.929428;15;173912;79177;59645;154304;521087;521087;-0.467;-0.500;0.748;60.0;0.0;0.0
09:46:17.929428;16;173831;79151;59654;154272;521087;521087;-0.469;-0.500;0.747;60.0;0.0;0.0
09:46:17.939151;17;173738;79127;59636;154256;521087;521087;-0.465;-0.499;0.749;60.0;0.0;0.0
09:46:18.049233;18;173643;79110;59627;154239;521087;521087;-0.467;-0.502;0.749;60.0;0.0;0.0
09:46:18.059584;19;173551;79110;59631;154212;521087;521087;-0.467;-0.501;0.748;60.0;0.0;0.0
09:46:18.069535;20;173479;79092;59630;154206;521087;521087;-0.468;-0.500;0.750;60.0;0.0;0.0
09:46:18.069535;21;173414;79098;59636;154204;521087;521087;-0.467;-0.499;0.749;60.0;0.0;0.0
09:46:18.079482;22;173353;79098;59643;154186;521087;521087;-0.469;-0.500;0.747;60.0;0.0;0.0
09:46:18.259939;23;173292;79093;59631;154190;521087;521087;-0.468;-0.501;0.749;60.0;0.0;0.0
09:46:18.268935;24;173204;147890;111711;154159;521087;521087;-0.466;-0.499;0.748;60.0;0.0;0.0
09:46:18.273930;25;173150;158017;119431;154153;521087;521087;-0.468;-0.501;0.749;60.0;0.0;0.0
09:46:18.279527;26;173086;157967;119430;154130;521087;521087;-0.467;-0.500;0.748;60.0;0.0;0.0
09:46:18.279527;27;173044;157936;119442;154119;521087;521087;-0.465;-0.499;0.749;60.0;0.0;0.0
09:46:18.449443;28;173011;157910;119428;154104;521087;521087;-0.464;-0.500;0.748;60.0;0.0;0.0
09:46:18.469428;29;172983;157885;119436;154098;521087;521087;-0.466;-0.501;0.748;60.0;0.0;0.0
09:46:18.484489;30;172945;157867;119433;154092;521087;521087;-0.467;-0.500;0.750;60.0;0.0;0.0
09:46:18.484489;31;172929;157864;119433;154085;521087;521087;-0.464;-0.501;0.750;60.0;0.0;0.0
09:46:18.489511;32;172918;157848;119439;154067;521087;521087;-0.464;-0.500;0.749;60.0;0.0;0.0
09:46:18.649267;33;172886;157832;119427;154041;521087;521087;-0.466;-0.501;0.748;60.0;0.0;0.0
09:46:18.664250;34;172857;157807;119427;154026;521087;521087;-0.465;-0.500;0.747;60.0;0.0;0.0
09:46:18.679277;35;172788;157758;119400;153990;521087;521087;-0.463;-0.500;0.750;60.0;0.0;0.0
09:46:18.689606;36;172728;161977;122691;153980;521087;521087;-0.462;-0.500;0.749;60.0;0.0;0.0
09:46:18.689606;37;172667;161979;122687;153961;521087;521087;-0.463;-0.502;0.749;60.0;0.0;0.0
09:46:18.849481;38;172596;161959;122683;153941;521087;521087;-0.461;-0.500;0.750;60.0;0.0;0.0
09:46:18.859266;39;172540;161947;122683;153917;521087;521087;-0.459;-0.500;0.748;60.0;0.0;0.0
09:46:18.869166;40;172505;161939;122672;153905;521087;521087;-0.461;-0.501;0.749;60.0;0.0;0.0
09:46:18.869166;41;172445;161929;122675;153879;521087;521087;-0.462;-0.502;0.752;60.0;0.0;0.0
09:46:18.879388;42;172393;161920;122653;153860;521087;521087;-0.460;-0.498;0.751;60.0;0.0;0.0
09:46:19.059303;43;172337;161897;122643;153847;521087;521087;-0.462;-0.501;0.748;60.0;0.0;0.0
09:46:19.064310;44;172281;161902;122644;153819;521087;521087;-0.463;-0.502;0.750;60.0;0.0;0.0
09:46:19.074618;45;172233;161906;122638;153797;521087;521087;-0.460;-0.500;0.750;60.0;0.0;0.0
09:46:19.079150;46;172214;161920;122642;153787;521087;521087;-0.458;-0.500;0.748;60.0;0.0;0.0
09:46:19.079150;47;172183;161909;122643;153767;521087;521087;-0.461;-0.500;0.750;60.0;0.0;0.0
09:46:19.259221;48;172146;161918;122634;153744;521087;521087;-0.463;-0.499;0.750;60.0;0.0;0.0
09:46:19.264229;49;172129;161918;122621;153739;521087;521087;-0.460;-0.500;0.751;60.0;0.0;0.0
09:46:19.274293;50;172093;161921;122632;153712;521087;521087;-0.458;-0.500;0.750;60.0;0.0;0.0
09:46:19.279334;51;172082;161923;122624;153717;521087;521087;-0.462;-0.501;0.750;60.0;0.0;0.0
09:46:19.284340;52;172058;161932;122611;153693;521087;521087;-0.461;-0.501;0.750;60.0;0.0;0.0
09:46:19.449437;53;172049;161920;122610;153683;521087;521087;-0.461;-0.500;0.750;60.0;0.0;0.0
09:46:19.459097;54;172026;161926;122609;153667;521087;521087;-0.461;-0.500;0.750;60.0;0.0;0.0
09:46:19.469229;55;172014;161930;122603;153660;521087;521087;-0.460;-0.500;0.750;60.0;0.0;0.0
09:46:19.479152;56;172014;161937;122591;153650;521087;521087;-0.461;-0.500;0.749;60.0;0.0;0.0
09:46:19.479152;57;172000;161947;122593;153632;521087;521087;-0.462;-0.500;0.750;60.0;0.0;0.0
09:46:19.659286;58;171997;161967;122595;153617;521087;521087;-0.459;-0.499;0.751;60.0;0.0;0.0
09:46:19.664293;59;171992;161953;122578;153599;521087;521087;-0.459;-0.501;0.750;60.0;0.0;0.0
09:46:19.669357;60;171952;161889;122543;153567;521087;521087;-0.459;-0.501;0.750;60.0;0.0;0.0
09:46:19.679460;61;171890;161837;122502;153541;521087;521087;-0.459;-0.499;0.750;60.0;0.0;0.0
09:46:19.689498;62;171835;161825;122503;153523;521087;521087;-0.461;-0.502;0.749;60.0;0.0;0.0
09:46:19.859263;63;171767;161835;122511;153496;521087;521087;-0.460;-0.501;0.749;60.0;0.0;0.0
09:46:19.864274;64;171722;161820;122492;153481;521087;521087;-0.458;-0.499;0.752;60.0;0.0;0.0
09:46:19.869332;65;171677;161811;122486;153460;521087;521087;-0.458;-0.501;0.749;60.0;0.0;0.0
09:46:19.879324;66;171634;161809;122483;153441;521087;521087;-0.459;-0.500;0.750;60.0;0.0;0.0
09:46:19.879324;67;171604;161812;122477;153428;521087;521087;-0.460;-0.502;0.752;60.0;0.0;0.0
09:46:20.059284;68;171563;161803;122464;153401;521087;521087;-0.456;-0.499;0.751;60.0;0.0;0.0
09:46:20.064291;69;171502;161786;122442;153351;521087;521087;-0.458;-0.500;0.749;60.0;0.0;0.0
09:46:20.079515;70;171454;161795;122442;153336;521087;521087;-0.461;-0.502;0.750;60.0;0.0;0.0
09:46:20.079515;71;171421;161793;122431;153328;521087;521087;-0.461;-0.501;0.750;60.0;0.0;0.0
09:46:20.089221;72;171400;161819;122441;153335;521087;521087;-0.459;-0.501;0.750;60.0;0.0;0.0
09:46:20.259312;73;171361;161831;122420;153327;521087;521087;-0.460;-0.501;0.749;60.0;0.0;0.0
09:46:20.269368;74;171317;161839;122405;153299;521087;521087;-0.460;-0.500;0.750;60.0;0.0;0.0
09:46:20.274378;75;171273;161846;122391;153272;521087;521087;-0.458;-0.500;0.750;60.0;0.0;0.0
09:46:20.284417;76;171227;161834;122376;153236;521087;521087;-0.459;-0.500;0.751;60.0;0.0;0.0
09:46:20.289442;77;171185;161836;122357;153190;521087;521087;-0.459;-0.500;0.750;60.0;0.0;0.0
09:46:20.459068;78;171149;161811;122326;153151;521087;521087;-0.458;-0.500;0.750;60.0;0.0;0.0
09:46:20.464076;79;171125;161808;122323;153129;521087;521087;-0.460;-0.500;0.750;60.0;0.0;0.0
09:46:20.469118;80;171106;161807;122311;153111;521087;521087;-0.458;-0.501;0.749;60.0;0.0;0.0
09:46:20.479259;81;171085;161803;122305;153083;521087;521087;-0.462;-0.501;0.750;60.0;0.0;0.0
09:46:20.489417;82;171069;161797;122298;153076;521087;521087;-0.458;-0.501;0.749;60.0;0.0;0.0
09:46:20.659317;83;171053;161793;122278;153064;521087;521087;-0.457;-0.500;0.751;60.0;0.0;0.0
09:46:20.669368;84;171042;161772;122276;153065;521087;521087;-0.463;-0.502;0.751;60.0;0.0;0.0
09:46:20.679470;85;170988;161711;122236;153032;521087;521087;-0.459;-0.501;0.750;60.0;0.0;0.0
09:46:20.679470;86;170933;161677;122205;153018;521087;521087;-0.458;-0.500;0.750;60.0;0.0;0.0
09:46:20.689290;87;170858;161649;122204;152988;521087;521087;-0.459;-0.502;0.750;60.0;0.0;0.0
09:46:20.859512;88;170800;161654;122189;152975;521087;521087;-0.459;-0.501;0.750;60.0;0.0;0.0
09:46:20.869177;89;170749;161651;122186;152952;521087;521087;-0.459;-0.500;0.750;59.0;0.0;0.0
09:46:20.879233;90;170734;161636;122175;152947;521087;521087;-0.458;-0.501;0.749;59.0;0.0;0.0
09:46:20.884238;91;170690;161629;122169;152935;521087;521087;-0.461;-0.500;0.750;59.0;0.0;0.0
09:46:20.889287;92;170642;161637;122162;152908;521087;521087;-0.460;-0.500;0.750;59.0;0.0;0.0
09:46:21.059309;93;170599;161612;122151;152879;521087;521087;-0.458;-0.500;0.749;59.0;0.0;0.0
09:46:21.069252;94;170560;161600;122150;152861;521087;521087;-0.459;-0.502;0.748;59.0;0.0;0.0
09:46:21.079493;95;170499;161611;122127;152837;521087;521087;-0.461;-0.502;0.750;59.0;0.0;0.0
09:46:21.079493;96;170478;161612;122119;152826;521087;521087;-0.460;-0.500;0.748;59.0;0.0;0.0
09:46:21.094314;97;170455;161603;122110;152816;521087;521087;-0.459;-0.502;0.749;59.0;997.4;0.0
09:46:21.259314;98;170433;161603;122104;152801;521087;521087;-0.461;-0.501;0.749;59.0;0.0;0.0
09:46:21.269148;99;170421;161610;122103;152789;521087;521087;-0.457;-0.501;0.749;59.0;0.0;0.0
09:46:21.274156;100;170415;161602;122097;152776;521087;521087;-0.460;-0.501;0.748;59.0;0.0;0.0
09:46:21.279197;101;170391;161595;122093;152758;521087;521087;-0.459;-0.501;0.750;59.0;0.0;0.0
09:46:21.289427;102;170392;161593;122083;152760;521087;521087;-0.458;-0.501;0.750;59.0;0.0;0.0
09:46:21.459295;103;170382;161588;122080;152748;521087;521087;-0.462;-0.502;0.749;59.0;0.0;0.0
09:46:21.469155;104;170373;161590;122075;152752;521087;521087;-0.463;-0.502;0.748;59.0;0.0;0.0
09:46:21.479202;105;170373;161594;122071;152745;521087;521087;-0.459;-0.501;0.748;59.0;0.0;0.0
09:46:21.484214;106;170360;161600;122075;152721;521087;521087;-0.457;-0.502;0.751;59.0;0.0;0.0
09:46:21.489255;107;170374;161592;122072;152746;521087;521087;-0.461;-0.503;0.749;59.0;0.0;0.0
09:46:21.659193;108;170349;161544;122052;152739;521087;521087;-0.461;-0.502;0.748;59.0;0.0;0.0
09:46:21.674228;109;170311;161500;122041;152733;521087;521087;-0.459;-0.502;0.748;59.0;0.0;0.0
09:46:21.679289;110;170257;161478;122042;152734;521087;521087;-0.461;-0.504;0.747;59.0;0.0;0.0
09:46:21.689330;111;170222;161479;122043;152741;521087;521087;-0.462;-0.503;0.748;59.0;0.0;0.0
09:46:21.694336;112;170186;161487;122045;152737;521087;521087;-0.460;-0.501;0.749;59.0;0.0;0.0
09:46:21.859334;113;170183;161479;122049;152764;521087;521087;-0.458;-0.502;0.748;59.0;0.0;0.0
09:46:21.869449;114;170168;161471;122054;152766;521087;521087;-0.461;-0.503;0.750;59.0;0.0;0.0
09:46:21.874459;115;170151;161461;122055;152776;521087;521087;-0.459;-0.503;0.747;59.0;0.0;0.0
09:46:21.878987;116;170126;161454;122051;152777;521087;521087;-0.459;-0.502;0.746;59.0;0.0;0.0
09:46:21.889394;117;170110;161453;122065;152784;521087;521087;-0.460;-0.504;0.746;59.0;0.0;0.0
09:46:22.059243;118;170112;161462;122076;152816;521087;521087;-0.461;-0.503;0.747;59.0;0.0;0.0
09:46:22.069472;119;170094;161471;122081;152820;521087;521087;-0.463;-0.504;0.746;59.0;0.0;0.0
09:46:22.069472;120;170098;161489;122090;152841;521087;521087;-0.459;-0.504;0.746;59.0;0.0;0.0
09:46:22.079171;121;170099;161488;122109;152848;521087;521087;-0.459;-0.504;0.746;59.0;982.0;0.0
09:46:22.089472;122;170129;161505;122131;152879;521087;521087;-0.459;-0.504;0.748;59.0;0.0;0.0
09:46:22.259313;123;170147;161504;122145;152905;521087;521087;-0.462;-0.504;0.747;59.0;0.0;0.0
09:46:22.269149;124;170163;161514;122146;152931;521087;521087;-0.461;-0.504;0.744;59.0;0.0;0.0
09:46:22.279212;125;170179;161518;122158;152945;521087;521087;-0.461;-0.504;0.746;59.0;0.0;0.0
09:46:22.284219;126;170210;161527;122174;152972;521087;521087;-0.461;-0.506;0.746;59.0;0.0;0.0
09:46:22.294264;127;170234;161547;122184;152990;521087;521087;-0.464;-0.505;0.746;59.0;0.0;0.0
09:46:22.459528;128;170226;161528;122176;152992;521087;521087;-0.460;-0.503;0.746;59.0;0.0;0.0
09:46:22.469244;129;170226;161489;122168;152996;521087;521087;-0.459;-0.505;0.744;59.0;0.0;0.0
09:46:22.474252;130;170216;161482;122183;153019;521087;521087;-0.461;-0.506;0.745;59.0;0.0;0.0
09:46:22.479287;131;170202;161487;122195;153041;521087;521087;-0.461;-0.504;0.746;59.0;0.0;0.0
09:46:22.491477;132;170210;161525;122206;153059;521087;521087;-0.461;-0.504;0.744;59.0;0.0;0.0
09:46:22.659019;133;170222;161515;122211;153075;521087;521087;-0.461;-0.505;0.745;59.0;0.0;0.0
09:46:22.669442;134;170230;161518;122224;153087;521087;521087;-0.463;-0.505;0.748;59.0;0.0;0.0
09:46:22.679237;135;170239;161534;122244;153095;521087;521087;-0.460;-0.503;0.748;59.0;0.0;0.0
09:46:22.689074;136;170260;161534;122239;153105;521087;521087;-0.461;-0.502;0.743;59.0;0.0;0.0
09:46:22.689074;137;170249;161556;122235;153094;521087;521087;-0.461;-0.506;0.743;59.0;0.0;0.0
09:46:22.859518;138;170251;161602;122248;153098;521087;521087;-0.461;-0.504;0.747;59.0;0.0;0.0
09:46:22.869126;139;170272;161614;122266;153102;521087;521087;-0.461;-0.504;0.747;59.0;0.0;0.0
09:46:22.879125;140;170303;161622;122267;153101;521087;521087;-0.459;-0.504;0.746;59.0;0.0;0.0
09:46:22.884132;141;170309;161639;122268;153073;521087;521087;-0.460;-0.506;0.747;59.0;0.0;0.0
09:46:22.894198;142;170353;161658;122270;153079;521087;521087;-0.461;-0.504;0.747;59.0;0.0;0.0
09:46:23.059031;143;170371;161672;122278;153049;521087;521087;-0.461;-0.503;0.746;59.0;0.0;0.0
09:46:23.069186;144;170405;161699;122289;153032;521087;521087;-0.460;-0.504;0.749;59.0;0.0;0.0
09:46:23.069186;145;170455;161704;122296;153014;521087;521087;-0.458;-0.505;0.749;59.0;0.0;0.0
09:46:23.079131;146;170492;161707;122285;153004;521087;521087;-0.459;-0.504;0.748;59.0;0.0;0.0
09:46:23.089115;147;170523;161690;122268;152987;521087;521087;-0.460;-0.504;0.748;59.0;1017.2;0.0
09:46:23.259564;148;170533;161653;122262;152982;521087;521087;-0.458;-0.503;0.748;59.0;0.0;0.0
09:46:23.274074;149;170511;161640;122259;152944;521087;521087;-0.458;-0.506;0.746;59.0;0.0;0.0
09:46:23.279122;150;170498;161665;122262;152933;521087;521087;-0.459;-0.506;0.748;59.0;0.0;0.0
09:46:23.289224;151;170506;161678;122265;152924;521087;521087;-0.456;-0.501;0.750;59.0;0.0;0.0
09:46:23.289224;152;170510;161666;122261;152913;521087;521087;-0.455;-0.503;0.749;59.0;0.0;0.0
09:46:23.459132;153;170518;161667;122254;152900;521087;521087;-0.455;-0.503;0.748;59.0;0.0;0.0
09:46:23.474282;154;170533;161659;122256;152899;521087;521087;-0.456;-0.505;0.749;59.0;0.0;0.0
09:46:23.479336;155;170542;161665;122248;152888;521087;521087;-0.454;-0.502;0.750;59.0;0.0;0.0
09:46:23.489381;156;170535;161660;122249;152871;521087;521087;-0.457;-0.503;0.747;59.0;0.0;0.0
09:46:23.494387;157;170543;161680;122243;152872;521087;521087;-0.457;-0.504;0.749;59.0;0.0;0.0
09:46:23.659113;158;170558;161686;122250;152863;521087;521087;-0.456;-0.502;0.749;59.0;0.0;0.0
09:46:23.669373;159;170585;161699;122256;152858;521087;521087;-0.457;-0.504;0.749;59.0;0.0;0.0
09:46:23.679445;160;170592;161708;122251;152834;521087;521087;-0.455;-0.504;0.748;59.0;0.0;0.0
09:46:23.684453;161;170619;161716;122245;152828;521087;521087;-0.455;-0.502;0.750;59.0;0.0;0.0
09:46:23.694000;162;170639;161732;122250;152817;521087;521087;-0.455;-0.504;0.750;59.0;0.0;0.0
09:46:23.859246;163;170661;161733;122240;152809;521087;521087;-0.454;-0.502;0.750;59.0;0.0;0.0
09:46:23.874300;164;170699;161741;122250;152808;521087;521087;-0.456;-0.502;0.749;59.0;0.0;0.0
09:46:23.879359;165;170719;161755;122245;152785;521087;521087;-0.453;-0.505;0.750;59.0;0.0;0.0
09:46:23.889141;166;170755;161761;122242;152786;521087;521087;-0.454;-0.503;0.750;59.0;0.0;0.0
09:46:23.889141;167;170777;161761;122227;152778;521087;521087;-0.456;-0.503;0.751;59.0;0.0;0.0
09:46:24.058998;168;170779;161707;122212;152758;521087;521087;-0.455;-0.503;0.750;59.0;905.2;0.0
09:46:24.069388;169;170756;161665;122181;152736;521087;521087;-0.453;-0.502;0.751;59.0;0.0;0.0
09:46:24.079126;170;170716;161646;122171;152707;521087;521087;-0.453;-0.502;0.748;59.0;0.0;0.0
09:46:24.079126;171;170677;161649;122179;152684;521087;521087;-0.452;-0.504;0.750;59.0;0.0;0.0
09:46:24.089120;172;170665;161659;122175;152680;521087;521087;-0.451;-0.501;0.751;59.0;0.0;0.0
09:46:24.259252;173;170651;161655;122174;152663;521087;521087;-0.452;-0.503;0.750;59.0;0.0;0.0
09:46:24.269478;174;170632;161650;122160;152655;521087;521087;-0.452;-0.502;0.750;59.0;0.0;0.0
09:46:24.279033;175;170620;161656;122163;152638;521087;521087;-0.454;-0.504;0.751;59.0;0.0;0.0
09:46:24.284039;176;170610;161640;122151;152617;521087;521087;-0.452;-0.502;0.750;59.0;0.0;0.0
09:46:24.289069;177;170583;161636;122137;152586;521087;521087;-0.454;-0.503;0.749;59.0;0.0;0.0
09:46:24.459222;178;170571;161639;122140;152574;521087;521087;-0.454;-0.502;0.750;59.0;0.0;0.0
09:46:24.469287;179;170563;161648;122139;152569;521087;521087;-0.453;-0.502;0.751;59.0;0.0;0.0
09:46:24.489508;180;170563;161661;122142;152552;521087;521087;-0.451;-0.503;0.750;59.0;0.0;0.0
09:46:24.490657;181;170566;161666;122138;152541;521087;521087;-0.453;-0.502;0.748;59.0;0.0;0.0
09:46:24.490657;182;170557;161672;122127;152522;521087;521087;-0.452;-0.503;0.749;59.0;0.0;0.0
09:46:24.659178;183;170578;161679;122129;152526;521087;521087;-0.454;-0.502;0.751;59.0;0.0;0.0
09:46:24.674224;184;170583;161674;122127;152519;521087;521087;-0.456;-0.503;0.751;59.0;0.0;0.0
09:46:24.679587;185;170593;161679;122119;152509;521087;521087;-0.454;-0.502;0.751;59.0;0.0;0.0
09:46:24.689143;186;170605;161688;122114;152497;521087;521087;-0.452;-0.503;0.750;59.0;0.0;0.0
09:46:24.689143;187;170612;161697;122123;152489;521087;521087;-0.454;-0.502;0.749;59.0;0.0;0.0
09:46:24.859058;188;170630;161707;122115;152491;521087;521087;-0.452;-0.502;0.750;59.0;0.0;0.0
09:46:24.874122;189;170649;161714;122107;152488;521087;521087;-0.453;-0.502;0.751;60.0;0.0;0.0
09:46:24.884183;190;170671;161725;122108;152487;521087;521087;-0.451;-0.502;0.751;60.0;0.0;0.0
09:46:24.889241;191;170688;161714;122097;152472;521087;521087;-0.455;-0.503;0.748;60.0;0.0;0.0
09:46:24.894247;192;170715;161724;122096;152478;521087;521087;-0.454;-0.503;0.747;60.0;0.0;0.0
09:46:25.059005;193;170734;161733;122088;152478;521087;521087;-0.451;-0.502;0.748;60.0;0.0;0.0
09:46:25.074117;194;170744;161736;122082;152457;521087;521087;-0.453;-0.505;0.750;60.0;0.0;0.0
09:46:25.084222;195;170762;161712;122063;152457;521087;521087;-0.454;-0.503;0.751;60.0;799.7;0.0
09:46:25.084222;196;170749;161647;122037;152437;521087;521087;-0.451;-0.503;0.752;60.0;0.0;0.0
09:46:25.089253;197;170702;161614;122007;152415;521087;521087;-0.454;-0.504;0.750;60.0;0.0;0.0
09:46:25.258972;198;170672;161611;122010;152409;521087;521087;-0.454;-0.505;0.750;60.0;0.0;0.0
09:46:25.269321;199;170666;161608;122009;152419;521087;521087;-0.450;-0.503;0.751;60.0;0.0;0.0
09:46:25.284419;200;170615;161601;121994;152385;521087;521087;-0.452;-0.502;0.750;60.0;0.0;0.0
09:46:25.288950;201;170608;161591;121982;152393;521087;521087;-0.453;-0.504;0.749;60.0;0.0;0.0
09:46:25.299191;202;170584;161593;121981;152376;521087;521087;-0.451;-0.503;0.752;60.0;0.0;0.0
09:46:25.459448;203;170560;161586;121972;152362;521087;521087;-0.451;-0.503;0.752;60.0;0.0;0.0
09:46:25.474288;204;170539;161582;121967;152345;521087;521087;-0.452;-0.502;0.749;60.0;0.0;0.0
09:46:25.479330;205;170519;161579;121954;152341;521087;521087;-0.456;-0.504;0.748;77.0;776.8;0.0
09:46:25.489395;206;170509;161578;121952;152339;521087;521087;-0.454;-0.502;0.750;77.0;0.0;0.0
09:46:25.499359;207;170483;161603;121955;152320;521087;521087;-0.454;-0.502;0.752;77.0;0.0;0.0
09:46:25.669298;208;170483;161607;121953;152316;521087;521087;-0.455;-0.503;0.749;77.0;0.0;0.0
09:46:25.674307;209;170478;161603;121959;152312;521087;521087;-0.452;-0.502;0.750;77.0;0.0;0.0
09:46:25.684406;210;170474;161607;121947;152297;521087;521087;-0.449;-0.503;0.750;77.0;0.0;0.0
09:46:25.689435;211;170454;161617;121936;152267;521087;521087;-0.451;-0.502;0.751;77.0;0.0;0.0
09:46:25.689435;212;170466;161622;121937;152269;521087;521087;-0.453;-0.502;0.751;77.0;0.0;0.0
09:46:25.869226;213;170469;161612;121926;152270;521087;521087;-0.454;-0.502;0.751;77.0;0.0;0.0
09:46:25.874233;214;170472;161620;121922;152256;521087;521087;-0.451;-0.502;0.749;77.0;0.0;0.0
09:46:25.884299;215;170469;161631;121912;152250;521087;521087;-0.451;-0.502;0.752;77.0;0.0;0.0
09:46:25.889347;216;170472;161619;121896;152247;521087;521087;-0.453;-0.504;0.751;77.0;0.0;0.0
09:46:25.894353;217;170497;161621;121898;152255;521087;521087;-0.453;-0.504;0.749;77.0;0.0;0.0
09:46:26.069518;218;170495;161628;121891;152239;521087;521087;-0.454;-0.503;0.750;77.0;0.0;0.0
09:46:26.079097;219;170502;161626;121887;152231;521087;521087;-0.449;-0.503;0.752;77.0;0.0;0.0
09:46:26.084104;220;170517;161601;121874;152234;521087;521087;-0.453;-0.503;0.751;77.0;0.0;0.0
09:46:26.094154;221;170506;161586;121845;152219;521087;521087;-0.455;-0.504;0.750;77.0;0.0;0.0
09:46:26.099186;222;170476;161535;121835;152204;521087;521087;-0.452;-0.502;0.751;77.0;0.0;0.0
09:46:26.269137;223;170423;161498;121808;152194;521087;521087;-0.453;-0.503;0.748;77.0;0.0;0.0
09:46:26.269137;224;170373;161491;121794;152171;521087;521087;-0.453;-0.504;0.749;77.0;0.0;0.0
09:46:26.279134;225;170341;161497;121787;152168;521087;521087;-0.450;-0.501;0.753;77.0;0.0;0.0
09:46:26.289230;226;170317;161479;121772;152160;521087;521087;-0.452;-0.504;0.750;77.0;0.0;0.0
09:46:26.289230;227;170280;161447;121751;152152;521087;521087;-0.454;-0.503;0.749;77.0;0.0;0.0
09:46:26.469228;228;170246;161447;121741;152143;521087;521087;-0.452;-0.504;0.751;77.0;0.0;0.0
09:46:26.484681;229;170201;161433;121731;152115;521087;521087;-0.455;-0.502;0.750;77.0;0.0;0.0
09:46:26.491485;230;170167;161411;121712;152102;521087;521087;-0.455;-0.502;0.746;77.0;0.0;0.0
09:46:26.491485;231;170134;161405;121703;152093;521087;521087;-0.456;-0.505;0.748;77.0;0.0;0.0
09:46:26.499005;232;170099;161396;121702;152086;521087;521087;-0.454;-0.502;0.750;77.0;0.0;0.0
09:46:26.669243;233;170089;161412;121699;152081;521087;521087;-0.456;-0.503;0.750;77.0;0.0;0.0
09:46:26.674250;234;170073;161405;121709;152071;521087;521087;-0.455;-0.503;0.751;77.0;0.0;0.0
09:46:26.684347;235;170055;161399;121686;152072;521087;521087;-0.454;-0.503;0.749;76.0;0.0;0.0
09:46:26.689398;236;170051;161418;121697;152080;521087;521087;-0.453;-0.503;0.750;76.0;0.0;0.0
09:46:26.699294;237;170009;161429;121689;152069;521087;521087;-0.453;-0.503;0.749;76.0;0.0;0.0
09:46:26.869464;238;169998;161426;121679;152086;521087;521087;-0.454;-0.503;0.750;76.0;0.0;0.0
09:46:26.879400;239;169972;161397;121665;152073;521087;521087;-0.456;-0.504;0.748;76.0;0.0;0.0
09:46:26.879400;240;169940;161404;121654;152056;521087;521087;-0.457;-0.504;0.749;76.0;0.0;0.0
09:46:26.889339;241;169926;161395;121655;152045;521087;521087;-0.456;-0.503;0.750;76.0;0.0;0.0
09:46:26.899174;242;169915;161387;121646;152037;521087;521087;-0.452;-0.502;0.750;76.0;0.0;0.0
09:46:27.069149;243;169924;161376;121641;152035;521087;521087;-0.456;-0.505;0.750;76.0;0.0;0.0
09:46:27.079097;244;169908;161343;121627;152029;521087;521087;-0.457;-0.505;0.748;76.0;0.0;0.0
09:46:27.089415;245;169873;161287;121618;152018;521087;521087;-0.454;-0.504;0.749;76.0;0.0;0.0
09:46:27.099236;246;169837;161275;121599;152019;521087;521087;-0.454;-0.504;0.747;76.0;0.0;0.0
09:46:27.099236;247;169804;161247;121615;152040;521087;521087;-0.456;-0.505;0.747;76.0;0.0;0.0
09:46:27.269167;248;169783;161251;121614;152068;521087;521087;-0.456;-0.502;0.748;76.0;0.0;0.0
09:46:27.269167;249;169769;161246;121620;152083;521087;521087;-0.454;-0.504;0.749;76.0;0.0;0.0
09:46:27.279094;250;169779;161243;121625;152111;521087;521087;-0.455;-0.503;0.748;76.0;0.0;0.0
09:46:27.289221;251;169765;161230;121620;152124;521087;521087;-0.458;-0.505;0.749;76.0;0.0;0.0
09:46:27.289221;252;169730;161231;121626;152129;521087;521087;-0.455;-0.502;0.749;76.0;0.0;0.0
09:46:27.469262;253;169699;161210;121633;152129;521087;521087;-0.456;-0.503;0.747;76.0;0.0;0.0
09:46:27.479816;254;169665;161213;121616;152125;521087;521087;-0.459;-0.506;0.746;76.0;0.0;0.0
09:46:27.489416;255;169649;161233;121626;152153;521087;521087;-0.460;-0.504;0.746;76.0;0.0;0.0
09:46:27.489416;256;169643;161233;121643;152171;521087;521087;-0.457;-0.503;0.749;76.0;0.0;0.0
09:46:27.499305;257;169645;161243;121650;152184;521087;521087;-0.455;-0.504;0.748;76.0;1109.1;0.0
09:46:27.669458;258;169649;161251;121658;152199;521087;521087;-0.457;-0.506;0.746;76.0;0.0;0.0
09:46:27.679009;259;169646;161254;121678;152214;521087;521087;-0.458;-0.504;0.748;76.0;0.0;0.0
09:46:27.684015;260;169662;161247;121662;152240;521087;521087;-0.458;-0.504;0.748;76.0;0.0;0.0
09:46:27.689061;261;169660;161253;121668;152239;521087;521087;-0.460;-0.504;0.745;76.0;0.0;0.0
09:46:27.699336;262;169670;161245;121668;152251;521087;521087;-0.459;-0.503;0.748;76.0;0.0;0.0
09:46:27.869186;263;169688;161272;121670;152254;521087;521087;-0.458;-0.508;0.747;76.0;0.0;0.0
09:46:27.879251;264;169686;161258;121671;152263;521087;521087;-0.460;-0.506;0.747;76.0;0.0;0.0
09:46:27.884257;265;169689;161248;121686;152272;521087;521087;-0.459;-0.505;0.746;76.0;0.0;0.0
09:46:27.889288;266;169651;161201;121653;152260;521087;521087;-0.456;-0.505;0.746;76.0;0.0;0.0
09:46:27.899052;267;169602;161181;121655;152262;521087;521087;-0.458;-0.508;0.745;76.0;0.0;0.0
09:46:28.074237;268;169575;161168;121673;152277;521087;521087;-0.460;-0.506;0.748;76.0;0.0;0.0
09:46:28.079280;269;169559;161198;121680;152288;521087;521087;-0.457;-0.504;0.748;76.0;0.0;0.0
09:46:28.084287;270;169556;161202;121681;152291;521087;521087;-0.455;-0.505;0.747;76.0;0.0;0.0
09:46:28.089325;271;169541;161204;121679;152291;521087;521087;-0.459;-0.506;0.747;76.0;0.0;0.0
09:46:28.098973;272;169534;161207;121686;152308;521087;521087;-0.460;-0.504;0.749;76.0;0.0;0.0
09:46:28.274375;273;169511;161189;121684;152306;521087;521087;-0.459;-0.502;0.746;76.0;0.0;0.0
09:46:28.284430;274;169516;161198;121685;152315;521087;521087;-0.461;-0.506;0.744;76.0;0.0;0.0
09:46:28.293980;275;169503;161216;121682;152324;521087;521087;-0.460;-0.505;0.746;76.0;0.0;0.0
09:46:28.299006;276;169503;161227;121682;152337;521087;521087;-0.457;-0.504;0.748;76.0;0.0;0.0
09:46:28.304011;277;169500;161245;121707;152337;521087;521087;-0.457;-0.505;0.747;76.0;0.0;0.0
09:46:28.473972;278;169514;161258;121709;152346;521087;521087;-0.458;-0.506;0.745;76.0;0.0;0.0
09:46:28.479005;279;169533;161273;121721;152356;521087;521087;-0.459;-0.504;0.746;76.0;0.0;0.0
09:46:28.479005;280;169555;161300;121740;152365;521087;521087;-0.458;-0.503;0.747;76.0;0.0;0.0
09:46:28.491739;281;169592;161316;121748;152361;521087;521087;-0.454;-0.505;0.749;76.0;0.0;0.0
09:46:28.499252;282;169619;161328;121738;152362;521087;521087;-0.458;-0.506;0.748;76.0;0.0;0.0
09:46:28.669073;283;169637;161319;121742;152360;521087;521087;-0.462;-0.502;0.748;76.0;1025.6;0.0
09:46:28.679135;284;169626;161297;121741;152342;521087;521087;-0.455;-0.502;0.747;76.0;0.0;0.0
09:46:28.689121;285;169605;161307;121738;152308;521087;521087;-0.458;-0.506;0.747;76.0;0.0;0.0
09:46:28.699073;286;169597;161323;121748;152297;521087;521087;-0.457;-0.506;0.749;76.0;0.0;0.0
09:46:28.709316;287;169593;161346;121779;152288;521087;521087;-0.453;-0.502;0.751;76.0;0.0;0.0
09:46:28.869155;288;169576;161357;121771;152242;521087;521087;-0.452;-0.503;0.749;76.0;0.0;0.0
09:46:28.879231;289;169584;161372;121761;152236;521087;521087;-0.454;-0.503;0.749;76.0;0.0;0.0
09:46:28.889276;290;169596;161382;121751;152227;521087;521087;-0.454;-0.506;0.751;76.0;0.0;0.0
09:46:28.894283;291;169585;161379;121752;152207;521087;521087;-0.453;-0.502;0.751;76.0;0.0;0.0
09:46:28.899319;292;169575;161378;121763;152192;521087;521087;-0.458;-0.503;0.747;76.0;0.0;0.0
09:46:29.074072;293;169564;161385;121763;152184;521087;521087;-0.458;-0.502;0.749;76.0;0.0;0.0
09:46:29.079144;294;169557;161393;121749;152170;521087;521087;-0.456;-0.501;0.749;76.0;0.0;0.0
09:46:29.089192;295;169543;161410;121739;152138;521087;521087;-0.456;-0.503;0.748;76.0;0.0;0.0
09:46:29.089192;296;169549;161416;121744;152132;521087;521087;-0.453;-0.503;0.751;76.0;0.0;0.0
09:46:29.099110;297;169558;161408;121739;152111;521087;521087;-0.454;-0.502;0.751;76.0;0.0;0.0
09:46:29.273986;298;169573;161423;121732;152095;521087;521087;-0.453;-0.502;0.747;76.0;0.0;0.0
09:46:29.279023;299;169573;161443;121723;152076;521087;521087;-0.452;-0.503;0.747;76.0;0.0;0.0
09:46:29.289170;300;169606;161446;121738;152087;521087;521087;-0.449;-0.503;0.751;76.0;0.0;0.0
09:46:29.289170;301;169620;161447;121723;152074;521087;521087;-0.454;-0.502;0.748;76.0;0.0;0.0
09:46:29.299396;302;169604;161422;121710;152046;521087;521087;-0.457;-0.504;0.749;76.0;0.0;0.0
09:46:29.309248;303;169563;161360;121689;152015;521087;521087;-0.453;-0.502;0.750;76.0;0.0;0.0
09:46:29.679106;304;169519;161332;121663;152000;521087;521087;-0.452;-0.503;0.748;76.0;0.0;0.0
09:46:29.684113;305;169457;161329;121652;151978;521087;521087;-0.453;-0.505;0.750;75.0;0.0;0.0
09:46:29.699274;306;169427;161326;121651;151981;521087;521087;-0.451;-0.501;0.751;75.0;0.0;0.0
09:46:29.709424;307;169364;161323;121645;151950;521087;521087;-0.452;-0.501;0.750;75.0;0.0;0.0
09:46:29.714430;308;169325;161303;121631;151939;521087;521087;-0.450;-0.502;0.749;75.0;0.0;0.0
09:46:29.718956;309;169271;161302;121633;151918;521087;521087;-0.452;-0.504;0.751;75.0;1200.5;0.0
09:46:29.718956;310;169226;161315;121622;151895;521087;521087;-0.446;-0.502;0.751;75.0;0.0;0.0
09:46:29.729397;311;169177;161301;121611;151885;521087;521087;-0.452;-0.504;0.749;75.0;0.0;0.0
09:46:29.732426;312;169136;161294;121606;151880;521087;521087;-0.454;-0.505;0.748;75.0;0.0;0.0
09:46:29.738968;313;169076;161320;121600;151862;521087;521087;-0.454;-0.503;0.750;75.0;0.0;0.0
09:46:30.079733;314;169045;161324;121595;151854;521087;521087;-0.449;-0.503;0.750;75.0;0.0;0.0
09:46:30.089288;315;169013;161318;121596;151840;521087;521087;-0.454;-0.502;0.750;73.0;0.0;0.0
09:46:30.099021;316;168977;161326;121579;151822;521087;521087;-0.453;-0.503;0.750;73.0;0.0;0.0
09:46:30.099021;317;168961;161330;121591;151813;521087;521087;-0.450;-0.502;0.750;73.0;0.0;0.0
09:46:30.109391;318;168937;161335;121574;151803;521087;521087;-0.450;-0.503;0.750;73.0;0.0;0.0
09:46:30.109391;319;168917;161345;121571;151797;521087;521087;-0.450;-0.503;0.750;73.0;0.0;0.0
09:46:30.119013;320;168892;161329;121569;151785;521087;521087;-0.452;-0.503;0.751;72.0;0.0;0.0
09:46:30.129175;321;168879;161341;121561;151783;521087;521087;-0.451;-0.504;0.750;72.0;0.0;0.0
09:46:30.132193;322;168853;161348;121552;151770;521087;521087;-0.455;-0.503;0.750;72.0;0.0;0.0
09:46:30.139220;323;168829;161346;121541;151754;521087;521087;-0.453;-0.503;0.748;72.0;0.0;0.0
09:46:30.479196;324;168816;161351;121542;151748;521087;521087;-0.450;-0.502;0.751;72.0;0.0;0.0
09:46:30.489684;325;168806;161359;121542;151744;521087;521087;-0.451;-0.503;0.752;70.0;523.9;0.0
09:46:30.490801;326;168779;161330;121511;151726;521087;521087;-0.454;-0.503;0.750;70.0;0.0;0.0
09:46:30.499322;327;168721;161274;121490;151695;521087;521087;-0.450;-0.502;0.752;70.0;0.0;0.0
09:46:30.509390;328;168639;161233;121460;151659;521087;521087;-0.450;-0.502;0.748;70.0;0.0;0.0
09:46:30.509390;329;168547;161231;121447;151632;521087;521087;-0.451;-0.504;0.749;70.0;0.0;0.0
09:46:30.519450;330;168465;161219;121444;151617;521087;521087;-0.450;-0.503;0.752;68.0;0.0;0.0
09:46:30.529434;331;168385;161208;121426;151594;521087;521087;-0.448;-0.502;0.750;68.0;0.0;0.0
09:46:30.532507;332;168301;161196;121424;151575;521087;521087;-0.451;-0.503;0.749;68.0;0.0;0.0
09:46:30.539029;333;168215;161191;121405;151557;521087;521087;-0.451;-0.504;0.752;68.0;0.0;0.0
09:46:30.879192;334;168135;161185;121398;151529;521087;521087;-0.450;-0.502;0.751;68.0;0.0;0.0
09:46:30.889314;335;168045;161173;121373;151496;521087;521087;-0.449;-0.502;0.750;67.0;0.0;0.0
09:46:30.899340;336;167958;161172;121367;151467;521087;521087;-0.451;-0.503;0.750;67.0;0.0;0.0
09:46:30.909302;337;167892;161178;121356;151453;521087;521087;-0.452;-0.502;0.751;67.0;0.0;0.0
09:46:30.909302;338;167825;161176;121367;151427;521087;521087;-0.449;-0.502;0.750;67.0;0.0;0.0
09:46:30.919182;339;167775;161171;121347;151420;521087;521087;-0.449;-0.503;0.750;67.0;0.0;0.0
09:46:30.924187;340;167703;161173;121339;151397;521087;521087;-0.449;-0.503;0.750;70.0;0.0;0.0
09:46:30.929222;341;167635;161178;121328;151357;521087;521087;-0.451;-0.502;0.751;70.0;0.0;0.0
09:46:30.932754;342;167585;161175;121323;151342;521087;521087;-0.449;-0.503;0.750;70.0;0.0;0.0
09:46:30.939273;343;167535;161173;121304;151325;521087;521087;-0.451;-0.503;0.751;70.0;0.0;0.0
09:46:31.279352;344;167500;161175;121317;151311;521087;521087;-0.453;-0.502;0.751;70.0;785.1;0.0
09:46:31.289419;345;167459;161181;121301;151303;521087;521087;-0.451;-0.503;0.751;72.0;0.0;0.0
09:46:31.289419;346;167417;161182;121284;151280;521087;521087;-0.449;-0.503;0.751;72.0;0.0;0.0
09:46:31.299116;347;167368;161189;121281;151261;521087;521087;-0.452;-0.504;0.751;72.0;0.0;0.0
09:46:31.309241;348;167341;161170;121286;151251;521087;521087;-0.449;-0.502;0.751;72.0;0.0;0.0
09:46:31.319274;349;167319;161198;121268;151241;521087;521087;-0.449;-0.502;0.750;72.0;0.0;0.0
09:46:31.324278;350;167294;161201;121261;151234;521087;521087;-0.448;-0.502;0.750;74.0;0.0;0.0
09:46:31.329298;351;167269;161190;121260;151222;521087;521087;-0.450;-0.503;0.750;74.0;0.0;0.0
09:46:31.339341;352;167244;161196;121259;151206;521087;521087;-0.450;-0.503;0.751;74.0;0.0;0.0
09:46:31.344345;353;167225;161195;121247;151202;521087;521087;-0.447;-0.502;0.752;74.0;0.0;0.0
09:46:31.679151;354;167211;161191;121238;151195;521087;521087;-0.453;-0.503;0.750;74.0;0.0;0.0
09:46:31.689139;355;167175;161158;121211;151168;521087;521087;-0.450;-0.502;0.751;76.0;0.0;0.0
09:46:31.689139;356;167112;161096;121195;151148;521087;521087;-0.448;-0.501;0.750;76.0;0.0;0.0
09:46:31.699164;357;167037;161058;121154;151146;521087;521087;-0.449;-0.504;0.749;76.0;0.0;0.0
09:46:31.709198;358;166944;161063;121158;151133;521087;521087;-0.450;-0.504;0.751;76.0;0.0;0.0
09:46:31.719294;359;166873;161061;121154;151127;521087;521087;-0.449;-0.501;0.753;76.0;0.0;0.0
09:46:31.719294;360;166802;161023;121135;151125;521087;521087;-0.449;-0.502;0.751;78.0;0.0;0.0
09:46:31.729180;361;166723;161030;121117;151121;521087;521087;-0.448;-0.502;0.751;78.0;0.0;0.0
09:46:31.739224;362;166634;161024;121108;151101;521087;521087;-0.452;-0.503;0.753;78.0;0.0;0.0
09:46:31.739224;363;166553;161018;121115;151074;521087;521087;-0.448;-0.501;0.751;78.0;766.0;0.0
09:46:32.089175;364;166483;160999;121104;151053;521087;521087;-0.449;-0.503;0.747;78.0;0.0;0.0
09:46:32.099293;365;166419;161007;121089;151057;521087;521087;-0.451;-0.503;0.751;78.0;0.0;0.0
09:46:32.104305;366;166347;161005;121091;151038;521087;521087;-0.449;-0.502;0.752;78.0;0.0;0.0
09:46:32.109330;367;166288;161002;121089;151015;521087;521087;-0.448;-0.502;0.750;78.0;0.0;0.0
09:46:32.109330;368;166236;161003;121085;151007;521087;521087;-0.451;-0.503;0.750;78.0;0.0;0.0
09:46:32.119418;369;166180;161008;121069;150990;521087;521087;-0.450;-0.503;0.751;78.0;0.0;0.0
09:46:32.119418;370;166139;161005;121067;150968;521087;521087;-0.449;-0.502;0.751;77.0;0.0;0.0
09:46:32.129253;371;166095;160998;121061;150955;521087;521087;-0.450;-0.503;0.750;77.0;0.0;0.0
09:46:32.138965;372;166059;161008;121057;150946;521087;521087;-0.451;-0.503;0.750;77.0;0.0;0.0
09:46:32.138965;373;166021;161011;121041;150936;521087;521087;-0.449;-0.503;0.751;77.0;0.0;0.0
09:46:32.479130;374;165988;161014;121041;150922;521087;521087;-0.451;-0.502;0.750;77.0;0.0;0.0
09:46:32.491633;375;165965;161019;121037;150922;521087;521087;-0.453;-0.503;0.750;77.0;0.0;0.0
09:46:32.491633;376;165937;161027;121034;150904;521087;521087;-0.450;-0.503;0.751;77.0;0.0;0.0
09:46:32.499147;377;165917;161013;121031;150905;521087;521087;-0.451;-0.503;0.750;77.0;0.0;0.0
09:46:32.509324;378;165892;161031;121027;150885;521087;521087;-0.451;-0.503;0.749;77.0;0.0;0.0
09:46:32.519380;379;165881;161037;121011;150887;521087;521087;-0.447;-0.501;0.750;77.0;0.0;0.0
09:46:32.519380;380;165878;161034;121024;150878;521087;521087;-0.448;-0.502;0.751;77.0;0.0;0.0
09:46:32.529198;381;165858;161023;121006;150870;521087;521087;-0.454;-0.504;0.750;77.0;0.0;0.0
09:46:32.539032;382;165817;160975;120982;150839;521087;521087;-0.450;-0.502;0.753;77.0;0.0;0.0
09:46:32.539032;383;165748;160936;120952;150826;521087;521087;-0.449;-0.501;0.750;77.0;0.0;0.0
09:46:32.679264;384;165670;160914;120945;150814;521087;521087;-0.450;-0.505;0.749;77.0;0.0;0.0
09:46:32.689097;385;165595;160916;120934;150815;521087;521087;-0.449;-0.502;0.754;77.0;0.0;0.0
09:46:32.689097;386;165540;160907;120943;150808;521087;521087;-0.448;-0.501;0.753;77.0;0.0;0.0
09:46:32.704289;387;165477;160888;120935;150791;521087;521087;-0.446;-0.503;0.750;77.0;0.0;0.0
09:46:32.704289;388;165416;160874;120917;150798;521087;521087;-0.450;-0.502;0.752;77.0;952.9;0.0
09:46:32.879090;389;165354;160872;120916;150776;521087;521087;-0.450;-0.503;0.752;77.0;0.0;0.0
09:46:32.879090;390;165282;160868;120916;150754;521087;521087;-0.447;-0.501;0.750;77.0;0.0;0.0
09:46:32.899376;391;165219;160857;120892;150746;521087;521087;-0.452;-0.505;0.751;77.0;0.0;0.0
09:46:32.899376;392;165141;160860;120902;150720;521087;521087;-0.451;-0.502;0.752;77.0;0.0;0.0
09:46:32.904382;393;165109;160876;120901;150717;521087;521087;-0.449;-0.501;0.752;77.0;0.0;0.0
09:46:33.279086;394;165063;160858;120891;150702;521087;521087;-0.447;-0.504;0.750;77.0;0.0;0.0
09:46:33.289247;395;165016;160875;120883;150687;521087;521087;-0.450;-0.501;0.750;77.0;0.0;0.0
09:46:33.299065;396;164984;160880;120881;150682;521087;521087;-0.448;-0.502;0.752;77.0;0.0;0.0
09:46:33.304072;397;164954;160882;120866;150668;521087;521087;-0.447;-0.503;0.750;77.0;0.0;0.0
09:46:33.309110;398;164932;160884;120873;150669;521087;521087;-0.450;-0.502;0.751;77.0;0.0;0.0
09:46:33.318889;399;164883;160878;120866;150646;521087;521087;-0.449;-0.502;0.751;77.0;0.0;0.0
09:46:33.329371;400;164854;160901;120871;150633;521087;521087;-0.449;-0.502;0.751;77.0;0.0;0.0
09:46:33.334888;401;164838;160889;120862;150631;521087;521087;-0.448;-0.503;0.751;77.0;0.0;0.0
09:46:33.338905;402;164813;160898;120866;150625;521087;521087;-0.449;-0.503;0.751;77.0;0.0;0.0
09:46:33.349032;403;164789;160899;120860;150612;521087;521087;-0.452;-0.502;0.751;77.0;0.0;0.0
09:46:33.479159;404;164776;160912;120855;150604;521087;521087;-0.451;-0.503;0.750;77.0;0.0;0.0
09:46:33.488916;405;164753;160916;120856;150592;521087;521087;-0.448;-0.502;0.752;77.0;0.0;0.0
09:46:33.488916;406;164753;160912;120840;150591;521087;521087;-0.452;-0.505;0.751;77.0;0.0;0.0
09:46:33.499352;407;164732;160897;120834;150571;521087;521087;-0.452;-0.503;0.751;77.0;0.0;0.0
09:46:33.508943;408;164691;160843;120806;150554;521087;521087;-0.450;-0.502;0.752;77.0;0.0;0.0
09:46:33.679103;409;164627;160804;120791;150542;521087;521087;-0.450;-0.504;0.748;77.0;0.0;0.0
09:46:33.679103;410;164559;160796;120786;150542;521087;521087;-0.452;-0.504;0.750;77.0;0.0;0.0
09:46:33.694405;411;164516;160799;120791;150549;521087;521087;-0.448;-0.501;0.753;77.0;0.0;0.0
09:46:33.698953;412;164452;160796;120778;150529;521087;521087;-0.447;-0.504;0.749;77.0;0.0;0.0
09:46:33.708864;413;164403;160781;120775;150523;521087;521087;-0.447;-0.503;0.751;77.0;0.0;0.0
09:46:33.879152;414;164342;160796;120766;150507;521087;521087;-0.452;-0.503;0.752;77.0;0.0;0.0
09:46:33.888935;415;164291;160770;120763;150494;521087;521087;-0.447;-0.501;0.752;77.0;0.0;0.0
09:46:33.888935;416;164241;160756;120746;150486;521087;521087;-0.448;-0.503;0.749;77.0;0.0;0.0
09:46:33.899135;417;164165;160769;120750;150463;521087;521087;-0.453;-0.504;0.751;77.0;0.0;0.0
09:46:33.909053;418;164127;160791;120751;150476;521087;521087;-0.449;-0.501;0.753;77.0;1163.4;0.0
09:46:34.288929;419;164087;160789;120741;150458;521087;521087;-0.447;-0.504;0.751;77.0;0.0;0.0
09:46:34.299035;420;164044;160797;120737;150453;521087;521087;-0.448;-0.503;0.751;77.0;0.0;0.0
09:46:34.304042;421;163999;160798;120727;150435;521087;521087;-0.451;-0.502;0.752;77.0;0.0;0.0
09:46:34.314100;422;163956;160804;120736;150408;521087;521087;-0.449;-0.501;0.754;77.0;0.0;0.0
09:46:34.319187;423;163917;160794;120709;150392;521087;521087;-0.450;-0.502;0.750;77.0;0.0;0.0
09:46:34.328982;424;163880;160786;120702;150369;521087;521087;-0.450;-0.503;0.751;77.0;0.0;0.0
09:46:34.335518;425;163849;160790;120702;150358;521087;521087;-0.450;-0.501;0.752;77.0;0.0;0.0
09:46:34.339056;426;163823;160791;120696;150343;521087;521087;-0.449;-0.503;0.751;77.0;0.0;0.0
09:46:34.339056;427;163802;160791;120688;150342;521087;521087;-0.448;-0.503;0.751;77.0;0.0;0.0
09:46:34.348929;428;163797;160783;120701;150349;521087;521087;-0.450;-0.503;0.751;77.0;0.0;0.0
09:46:34.479012;429;163804;160795;120682;150346;521087;521087;-0.448;-0.502;0.750;77.0;0.0;0.0
09:46:34.489245;430;163793;160802;120692;150336;521087;521087;-0.447;-0.502;0.752;77.0;0.0;0.0
09:46:34.491457;431;163800;160798;120687;150339;521087;521087;-0.452;-0.503;0.751;77.0;0.0;0.0
09:46:34.498974;432;163784;160784;120675;150329;521087;521087;-0.452;-0.503;0.751;77.0;0.0;0.0
09:46:34.509002;433;163751;160725;120649;150315;521087;521087;-0.447;-0.501;0.753;77.0;0.0;0.0
09:46:34.679058;434;163683;160690;120626;150300;521087;521087;-0.451;-0.504;0.748;77.0;0.0;0.0
09:46:34.689032;435;163624;160699;120631;150305;521087;521087;-0.449;-0.504;0.752;77.0;0.0;0.0
09:46:34.699097;436;163565;160692;120635;150299;521087;521087;-0.447;-0.501;0.753;77.0;0.0;0.0
09:46:34.704103;437;163524;160693;120634;150292;521087;521087;-0.447;-0.502;0.752;77.0;0.0;0.0
09:46:34.714161;438;163474;160686;120615;150293;521087;521087;-0.449;-0.502;0.750;77.0;0.0;0.0
09:46:34.879282;439;163429;160684;120641;150280;521087;521087;-0.449;-0.502;0.753;77.0;0.0;0.0
09:46:34.889114;440;163363;160667;120606;150247;521087;521087;-0.447;-0.501;0.751;76.0;0.0;0.0
09:46:34.909305;441;163315;160657;120599;150237;521087;521087;-0.448;-0.503;0.749;76.0;0.0;0.0
09:46:34.919138;442;163252;160657;120596;150219;521087;521087;-0.450;-0.503;0.750;76.0;0.0;0.0
09:46:34.919138;443;163209;160667;120597;150207;521087;521087;-0.447;-0.502;0.754;76.0;0.0;0.0
09:46:35.079273;444;163177;160670;120585;150184;521087;521087;-0.448;-0.502;0.752;76.0;0.0;0.0
09:46:35.089365;445;163155;160663;120584;150164;521087;521087;-0.447;-0.502;0.750;76.0;1049.4;0.0
09:46:35.104027;446;163122;160657;120570;150148;521087;521087;-0.451;-0.502;0.751;76.0;0.0;0.0
09:46:35.109064;447;163090;160665;120561;150137;521087;521087;-0.447;-0.502;0.751;76.0;0.0;0.0
09:46:35.114070;448;163064;160634;120550;150120;521087;521087;-0.449;-0.504;0.751;76.0;0.0;0.0
09:46:35.279353;449;163026;160645;120543;150105;521087;521087;-0.451;-0.503;0.749;76.0;0.0;0.0
09:46:35.288906;450;163010;160639;120527;150101;521087;521087;-0.448;-0.503;0.750;76.0;0.0;0.0
09:46:35.288906;451;162971;160629;120527;150085;521087;521087;-0.448;-0.504;0.750;76.0;0.0;0.0
09:46:35.298947;452;162948;160622;120524;150077;521087;521087;-0.450;-0.503;0.750;76.0;0.0;0.0
09:46:35.309034;453;162940;160615;120511;150086;521087;521087;-0.450;-0.505;0.749;76.0;0.0;0.0
09:46:35.478931;454;162922;160617;120512;150083;521087;521087;-0.451;-0.503;0.749;76.0;0.0;0.0
09:46:35.489044;455;162912;160618;120507;150076;521087;521087;-0.448;-0.502;0.751;76.0;0.0;0.0
09:46:35.494050;456;162888;160602;120510;150078;521087;521087;-0.449;-0.504;0.751;76.0;0.0;0.0
09:46:35.499081;457;162851;160570;120491;150077;521087;521087;-0.451;-0.502;0.751;76.0;0.0;0.0
09:46:35.508938;458;162814;160530;120459;150071;521087;521087;-0.447;-0.503;0.751;76.0;0.0;0.0
09:46:35.678925;459;162734;160461;120443;150071;521087;521087;-0.449;-0.503;0.749;76.0;0.0;0.0
09:46:35.689339;460;162655;160448;120444;150075;521087;521087;-0.452;-0.506;0.749;76.0;0.0;0.0
09:46:35.699395;461;162585;160449;120450;150088;521087;521087;-0.451;-0.502;0.750;76.0;0.0;0.0
09:46:35.704402;462;162539;160432;120454;150096;521087;521087;-0.450;-0.503;0.750;76.0;0.0;0.0
09:46:35.708937;463;162473;160423;120440;150092;521087;521087;-0.451;-0.502;0.749;76.0;0.0;0.0
09:46:35.879014;464;162398;160396;120431;150089;521087;521087;-0.453;-0.505;0.750;76.0;0.0;0.0
09:46:35.889087;465;162327;160377;120427;150086;521087;521087;-0.452;-0.502;0.750;75.0;0.0;0.0
09:46:35.899415;466;162256;160344;120405;150083;521087;521087;-0.453;-0.501;0.748;75.0;0.0;0.0
09:46:35.904422;467;162191;160324;120405;150094;521087;521087;-0.458;-0.505;0.746;75.0;0.0;0.0
09:46:35.908958;468;162101;160334;120410;150084;521087;521087;-0.454;-0.503;0.750;75.0;0.0;0.0
09:46:36.089199;469;162064;160336;120413;150088;521087;521087;-0.453;-0.504;0.749;75.0;0.0;0.0
09:46:36.099341;470;162024;160340;120406;150097;521087;521087;-0.453;-0.505;0.748;75.0;1062.5;0.0
09:46:36.109399;471;161978;160337;120414;150099;521087;521087;-0.454;-0.504;0.748;75.0;0.0;0.0
09:46:36.119013;472;161942;160335;120426;150108;521087;521087;-0.453;-0.505;0.750;75.0;0.0;0.0
09:46:36.119013;473;161898;160329;120428;150105;521087;521087;-0.455;-0.503;0.748;75.0;0.0;0.0
09:46:36.279186;474;161877;160325;120430;150122;521087;521087;-0.455;-0.503;0.748;75.0;0.0;0.0
09:46:36.294110;475;161857;160318;120431;150133;521087;521087;-0.454;-0.505;0.748;75.0;0.0;0.0
09:46:36.304180;476;161831;160318;120445;150144;521087;521087;-0.454;-0.505;0.751;75.0;0.0;0.0
09:46:36.309217;477;161806;160300;120454;150159;521087;521087;-0.459;-0.504;0.748;75.0;0.0;0.0
09:46:36.314222;478;161760;160295;120431;150155;521087;521087;-0.458;-0.503;0.748;75.0;0.0;0.0
09:46:36.479241;479;161723;160254;120425;150159;521087;521087;-0.453;-0.505;0.746;75.0;0.0;0.0
09:46:36.491368;480;161652;160231;120416;150160;521087;521087;-0.454;-0.507;0.745;74.0;0.0;0.0
09:46:36.499381;481;161585;160222;120431;150182;521087;521087;-0.458;-0.505;0.748;74.0;0.0;0.0
09:46:36.499381;482;161507;160215;120430;150188;521087;521087;-0.457;-0.502;0.748;74.0;0.0;0.0
09:46:36.508931;483;161453;160219;120437;150203;521087;521087;-0.454;-0.504;0.747;74.0;0.0;0.0
09:46:36.679409;484;161393;160208;120445;150200;521087;521087;-0.457;-0.506;0.747;74.0;0.0;0.0
09:46:36.689230;485;161332;160200;120448;150199;521087;521087;-0.458;-0.506;0.749;74.0;0.0;0.0
09:46:36.699346;486;161264;160183;120446;150196;521087;521087;-0.457;-0.503;0.747;74.0;0.0;0.0
09:46:36.709034;487;161201;160173;120437;150190;521087;521087;-0.458;-0.507;0.745;74.0;0.0;0.0
09:46:36.719083;488;161140;160176;120441;150195;521087;521087;-0.458;-0.505;0.746;74.0;0.0;0.0
09:46:36.879111;489;161095;160186;120460;150210;521087;521087;-0.457;-0.503;0.748;74.0;0.0;0.0
09:46:36.894240;490;161045;160200;120477;150198;521087;521087;-0.456;-0.507;0.745;74.0;0.0;0.0
09:46:36.899277;491;161022;160211;120482;150212;521087;521087;-0.457;-0.507;0.744;74.0;0.0;0.0
09:46:36.899277;492;160996;160216;120496;150224;521087;521087;-0.458;-0.505;0.746;74.0;0.0;0.0
09:46:36.908999;493;160978;160223;120507;150234;521087;521087;-0.456;-0.504;0.746;74.0;0.0;0.0
09:46:37.089229;494;160986;160230;120518;150255;521087;521087;-0.460;-0.506;0.747;74.0;0.0;0.0
09:46:37.098917;495;160976;160241;120530;150265;521087;521087;-0.462;-0.504;0.745;73.0;0.0;0.0
09:46:37.109255;496;160971;160231;120530;150277;521087;521087;-0.458;-0.503;0.748;73.0;998.5;0.0
09:46:37.119344;497;160928;160203;120524;150256;521087;521087;-0.455;-0.503;0.746;73.0;0.0;0.0
09:46:37.119344;498;160869;160172;120524;150243;521087;521087;-0.457;-0.507;0.746;73.0;0.0;0.0
09:46:37.289023;499;160819;160193;120547;150250;521087;521087;-0.458;-0.505;0.748;73.0;0.0;0.0
09:46:37.294031;500;160775;160206;120559;150244;521087;521087;-0.453;-0.502;0.750;73.0;0.0;0.0
09:46:37.299068;501;160750;160209;120555;150241;521087;521087;-0.455;-0.504;0.746;73.0;0.0;0.0
09:46:37.309021;502;160720;160225;120552;150234;521087;521087;-0.458;-0.507;0.747;73.0;0.0;0.0
09:46:37.319086;503;160673;160228;120559;150227;521087;521087;-0.457;-0.503;0.751;73.0;0.0;0.0
09:46:37.479316;504;160641;160216;120560;150213;521087;521087;-0.456;-0.502;0.747;73.0;0.0;0.0
09:46:37.489366;505;160609;160236;120548;150195;521087;521087;-0.459;-0.505;0.746;73.0;0.0;0.0
09:46:37.499034;506;160572;160255;120556;150188;521087;521087;-0.459;-0.502;0.749;73.0;0.0;0.0
09:46:37.509001;507;160553;160270;120570;150183;521087;521087;-0.456;-0.503;0.748;73.0;0.0;0.0
09:46:37.509001;508;160537;160298;120574;150165;521087;521087;-0.456;-0.505;0.749;73.0;0.0;0.0
09:46:37.678912;509;160506;160304;120570;150136;521087;521087;-0.454;-0.504;0.748;73.0;0.0;0.0
09:46:37.694110;510;160497;160328;120580;150120;521087;521087;-0.454;-0.504;0.750;73.0;0.0;0.0
09:46:37.699152;511;160471;160341;120587;150088;521087;521087;-0.452;-0.503;0.750;73.0;0.0;0.0
09:46:37.709026;512;160466;160348;120574;150065;521087;521087;-0.452;-0.503;0.750;73.0;0.0;0.0
09:46:37.714034;513;160466;160336;120570;150043;521087;521087;-0.456;-0.504;0.748;73.0;0.0;0.0
09:46:37.889319;514;160427;160308;120540;150002;521087;521087;-0.456;-0.504;0.749;73.0;0.0;0.0
09:46:37.898958;515;160337;160265;120525;149942;521087;521087;-0.450;-0.503;0.750;72.0;0.0;0.0
09:46:37.898958;516;160249;160260;120511;149900;521087;521087;-0.452;-0.504;0.749;72.0;0.0;0.0
09:46:37.908971;517;160159;160263;120509;149862;521087;521087;-0.452;-0.505;0.750;72.0;0.0;0.0
09:46:37.908971;518;160068;160258;120499;149821;521087;521087;-0.447;-0.502;0.750;72.0;0.0;0.0
09:46:38.089231;519;160005;160260;120492;149792;521087;521087;-0.447;-0.504;0.749;72.0;0.0;0.0
09:46:38.094240;520;159921;160264;120478;149752;521087;521087;-0.449;-0.504;0.749;72.0;975.4;0.0
09:46:38.099275;521;159831;160259;120466;149704;521087;521087;-0.449;-0.505;0.752;72.0;0.0;0.0
09:46:38.109322;522;159738;160242;120460;149662;521087;521087;-0.449;-0.502;0.750;72.0;0.0;0.0
09:46:38.114330;523;159664;160230;120434;149644;521087;521087;-0.452;-0.504;0.749;72.0;0.0;0.0
09:46:38.289070;524;159585;160241;120432;149608;521087;521087;-0.454;-0.505;0.749;72.0;0.0;0.0
09:46:38.289070;525;159503;160242;120434;149564;521087;521087;-0.450;-0.502;0.752;72.0;0.0;0.0
09:46:38.303930;526;159452;160251;120425;149536;521087;521087;-0.449;-0.503;0.750;72.0;0.0;0.0
09:46:38.313991;527;159394;160256;120422;149513;521087;521087;-0.450;-0.504;0.750;72.0;0.0;0.0
09:46:38.319043;528;159346;160258;120412;149493;521087;521087;-0.447;-0.503;0.751;72.0;0.0;0.0
09:46:38.489104;529;159296;160264;120411;149457;521087;521087;-0.450;-0.503;0.750;72.0;0.0;0.0
09:46:38.490481;530;159238;160261;120385;149420;521087;521087;-0.448;-0.504;0.751;71.0;0.0;0.0
09:46:38.498994;531;159204;160249;120382;149404;521087;521087;-0.451;-0.503;0.750;71.0;0.0;0.0
09:46:38.509160;532;159169;160249;120367;149377;521087;521087;-0.450;-0.503;0.749;71.0;0.0;0.0
09:46:38.509160;533;159122;160273;120363;149342;521087;521087;-0.452;-0.504;0.749;71.0;0.0;0.0
09:46:38.689031;534;159087;160267;120354;149320;521087;521087;-0.449;-0.503;0.750;71.0;0.0;0.0
09:46:38.694038;535;159063;160273;120342;149293;521087;521087;-0.450;-0.503;0.751;71.0;0.0;0.0
09:46:38.704413;536;159036;160278;120334;149276;521087;521087;-0.450;-0.503;0.750;71.0;0.0;0.0
09:46:38.709026;537;159019;160285;120324;149259;521087;521087;-0.447;-0.504;0.751;71.0;0.0;0.0
09:46:38.709026;538;158987;160262;120316;149234;521087;521087;-0.448;-0.504;0.750;71.0;0.0;0.0
09:46:38.889228;539;158970;160286;120317;149221;521087;521087;-0.449;-0.503;0.749;71.0;0.0;0.0
09:46:38.889228;540;158955;160296;120301;149203;521087;521087;-0.446;-0.503;0.751;71.0;0.0;0.0
09:46:38.899288;541;158935;160292;120297;149193;521087;521087;-0.447;-0.505;0.753;71.0;881.1;0.0
09:46:38.909152;542;158907;160255;120264;149170;521087;521087;-0.450;-0.503;0.750;71.0;0.0;0.0
09:46:38.919085;543;158829;160192;120230;149130;521087;521087;-0.447;-0.502;0.753;71.0;0.0;0.0
09:46:39.088926;544;158728;160146;120216;149108;521087;521087;-0.452;-0.502;0.749;71.0;0.0;0.0
09:46:39.099090;545;158634;160136;120200;149091;521087;521087;-0.446;-0.503;0.750;71.0;0.0;0.0
09:46:39.099090;546;158531;160133;120201;149060;521087;521087;-0.447;-0.503;0.751;71.0;0.0;0.0
09:46:39.108874;547;158439;160100;120174;149038;521087;521087;-0.448;-0.502;0.751;71.0;0.0;0.0
09:46:39.118987;548;158323;160090;120169;149001;521087;521087;-0.446;-0.503;0.751;71.0;0.0;0.0
09:46:39.289090;549;158218;160080;120156;148976;521087;521087;-0.447;-0.503;0.751;71.0;0.0;0.0
09:46:39.299153;550;158110;160077;120151;148949;521087;521087;-0.447;-0.502;0.752;70.0;0.0;0.0
09:46:39.304165;551;158011;160061;120116;148916;521087;521087;-0.446;-0.501;0.750;70.0;0.0;0.0
09:46:39.309199;552;157926;160048;120112;148900;521087;521087;-0.449;-0.503;0.751;70.0;0.0;0.0
09:46:39.319073;553;157830;160050;120105;148874;521087;521087;-0.449;-0.503;0.753;70.0;0.0;0.0
09:46:39.488937;554;157746;160045;120097;148848;521087;521087;-0.446;-0.502;0.752;70.0;0.0;0.0
09:46:39.488937;555;157674;160063;120098;148824;521087;521087;-0.447;-0.504;0.751;70.0;0.0;0.0
09:46:39.498871;556;157596;160053;120069;148805;521087;521087;-0.446;-0.504;0.751;70.0;0.0;0.0
09:46:39.508957;557;157532;160049;120078;148786;521087;521087;-0.447;-0.503;0.752;70.0;0.0;0.0
09:46:39.519064;558;157469;160049;120068;148764;521087;521087;-0.445;-0.502;0.751;70.0;0.0;0.0
09:46:39.689053;559;157403;160048;120059;148738;521087;521087;-0.448;-0.503;0.751;70.0;702.0;0.0
09:46:39.689053;560;157346;160044;120046;148718;521087;521087;-0.448;-0.503;0.752;70.0;0.0;0.0
09:46:39.699158;561;157290;160046;120048;148703;521087;521087;-0.448;-0.503;0.752;70.0;0.0;0.0
09:46:39.709058;562;157251;160052;120033;148692;521087;521087;-0.447;-0.504;0.751;70.0;0.0;0.0
09:46:39.709058;563;157196;160049;120031;148663;521087;521087;-0.448;-0.503;0.751;70.0;0.0;0.0
09:46:39.889006;564;157176;160049;120031;148678;521087;521087;-0.446;-0.503;0.750;70.0;0.0;0.0
09:46:39.909037;565;157133;160060;120028;148664;521087;521087;-0.448;-0.503;0.751;70.0;0.0;0.0
09:46:39.909037;566;157097;160058;120021;148654;521087;521087;-0.447;-0.504;0.751;70.0;0.0;0.0
09:46:39.909037;567;157070;160052;120018;148646;521087;521087;-0.450;-0.504;0.750;70.0;0.0;0.0
09:46:39.919086;568;157047;160068;120017;148646;521087;521087;-0.446;-0.502;0.752;70.0;0.0;0.0
09:46:40.089180;569;157008;160067;120013;148630;521087;521087;-0.447;-0.502;0.752;70.0;0.0;0.0
09:46:40.099041;570;156998;160072;119998;148633;521087;521087;-0.450;-0.503;0.751;69.0;0.0;0.0
09:46:40.099041;571;156949;160023;119978;148611;521087;521087;-0.447;-0.503;0.751;69.0;0.0;0.0
09:46:40.108988;572;156863;159966;119938;148588;521087;521087;-0.446;-0.502;0.750;69.0;0.0;0.0
09:46:40.119238;573;156759;159931;119937;148565;521087;521087;-0.449;-0.505;0.749;69.0;0.0;0.0
09:46:40.293937;574;156652;159923;119937;148562;521087;521087;-0.443;-0.504;0.752;69.0;648.5;0.0
09:46:40.298973;575;156558;159908;119928;148548;521087;521087;-0.446;-0.502;0.752;69.0;0.0;0.0
09:46:40.298973;576;156470;159884;119913;148537;521087;521087;-0.447;-0.504;0.750;69.0;0.0;0.0
09:46:40.309112;577;156371;159873;119903;148532;521087;521087;-0.447;-0.503;0.751;69.0;0.0;0.0
09:46:40.318832;578;156272;159869;119890;148505;521087;521087;-0.448;-0.503;0.753;69.0;0.0;0.0
09:46:40.491006;579;156186;159854;119882;148496;521087;521087;-0.450;-0.502;0.751;69.0;0.0;0.0
09:46:40.499023;580;156067;159835;119858;148460;521087;521087;-0.449;-0.502;0.749;69.0;0.0;0.0
09:46:40.499023;581;155973;159818;119851;148443;521087;521087;-0.450;-0.503;0.750;69.0;0.0;0.0
09:46:40.509097;582;155878;159828;119842;148434;521087;521087;-0.450;-0.503;0.752;69.0;0.0;0.0
09:46:40.519085;583;155803;159823;119847;148421;521087;521087;-0.446;-0.502;0.750;69.0;0.0;0.0
09:46:40.688969;584;155737;159807;119834;148415;521087;521087;-0.447;-0.504;0.750;69.0;0.0;0.0
09:46:40.698968;585;155658;159796;119826;148392;521087;521087;-0.449;-0.504;0.751;69.0;0.0;0.0
09:46:40.698968;586;155594;159797;119822;148387;521087;521087;-0.447;-0.502;0.751;69.0;0.0;0.0
09:46:40.709313;587;155526;159790;119805;148383;521087;521087;-0.447;-0.503;0.751;69.0;0.0;0.0
09:46:40.719313;588;155473;159775;119797;148393;521087;521087;-0.449;-0.504;0.750;69.0;0.0;0.0
09:46:40.889712;589;155401;159764;119795;148390;521087;521087;-0.450;-0.504;0.750;69.0;0.0;0.0
09:46:40.899023;590;155356;159759;119786;148408;521087;521087;-0.449;-0.503;0.752;69.0;0.0;0.0
09:46:40.899023;591;155286;159744;119778;148403;521087;521087;-0.449;-0.504;0.749;69.0;0.0;0.0
09:46:40.914184;592;155228;159728;119775;148403;521087;521087;-0.448;-0.503;0.750;69.0;0.0;0.0
09:46:40.924239;593;155177;159733;119775;148406;521087;521087;-0.451;-0.505;0.749;69.0;0.0;0.0
09:46:41.088986;594;155127;159717;119757;148420;521087;521087;-0.452;-0.503;0.748;69.0;0.0;0.0
09:46:41.098877;595;155077;159718;119770;148427;521087;521087;-0.448;-0.503;0.748;69.0;0.0;0.0
09:46:41.109137;596;155040;159709;119767;148434;521087;521087;-0.450;-0.504;0.751;69.0;0.0;0.0
09:46:41.119113;597;155009;159684;119751;148452;521087;521087;-0.454;-0.503;0.748;69.0;0.0;0.0
09:46:41.129233;598;154936;159626;119731;148456;521087;521087;-0.456;-0.505;0.748;69.0;0.0;0.0
09:46:41.289261;599;154830;159575;119727;148457;521087;521087;-0.455;-0.505;0.749;69.0;0.0;0.0
09:46:41.299245;600;154725;159565;119732;148467;521087;521087;-0.454;-0.507;0.749;69.0;0.0;0.0
09:46:41.308905;601;154636;159558;119727;148487;521087;521087;-0.453;-0.503;0.749;69.0;0.0;0.0
09:46:41.308905;602;154546;159543;119732;148489;521087;521087;-0.451;-0.502;0.749;69.0;0.0;0.0
09:46:41.318983;603;154498;159533;119728;148500;521087;521087;-0.453;-0.504;0.749;69.0;0.0;0.0
09:46:41.489030;604;154439;159524;119715;148502;521087;521087;-0.456;-0.504;0.750;69.0;0.0;0.0
09:46:41.499033;605;154337;159492;119720;148493;521087;521087;-0.457;-0.504;0.748;69.0;1191.0;0.0
09:46:41.499033;606;154251;159476;119708;148493;521087;521087;-0.455;-0.503;0.747;69.0;0.0;0.0
09:46:41.509189;607;154141;159465;119709;148476;521087;521087;-0.457;-0.505;0.746;69.0;0.0;0.0
09:46:41.518894;608;154074;159466;119717;148502;521087;521087;-0.457;-0.505;0.747;69.0;0.0;0.0
09:46:41.689008;609;154012;159461;119734;148522;521087;521087;-0.454;-0.504;0.748;69.0;0.0;0.0
09:46:41.699081;610;153944;159475;119738;148520;521087;521087;-0.455;-0.507;0.748;69.0;0.0;0.0
09:46:41.709227;611;153882;159468;119737;148514;521087;521087;-0.455;-0.507;0.747;69.0;0.0;0.0
09:46:41.709227;612;153835;159468;119733;148520;521087;521087;-0.455;-0.504;0.746;69.0;0.0;0.0
09:46:41.719147;613;153795;159464;119749;148531;521087;521087;-0.456;-0.504;0.747;69.0;0.0;0.0
09:46:41.889328;614;153742;159464;119758;148523;521087;521087;-0.454;-0.505;0.747;69.0;0.0;0.0
09:46:41.899113;615;153700;159476;119759;148531;521087;521087;-0.457;-0.506;0.745;69.0;0.0;0.0
09:46:41.899113;616;153669;159462;119771;148547;521087;521087;-0.458;-0.504;0.744;69.0;0.0;0.0
09:46:41.909056;617;153645;159475;119793;148566;521087;521087;-0.457;-0.507;0.746;69.0;0.0;0.0
09:46:41.919386;618;153618;159482;119792;148579;521087;521087;-0.456;-0.508;0.749;69.0;0.0;0.0
09:46:42.089704;619;153592;159485;119801;148593;521087;521087;-0.458;-0.507;0.748;69.0;0.0;0.0
09:46:42.098978;620;153560;159457;119801;148609;521087;521087;-0.456;-0.506;0.746;70.0;0.0;0.0
09:46:42.109112;621;153497;159428;119791;148607;521087;521087;-0.455;-0.504;0.745;70.0;0.0;0.0
09:46:42.109112;622;153414;159410;119817;148609;521087;521087;-0.458;-0.509;0.745;70.0;0.0;0.0
09:46:42.119232;623;153352;159414;119805;148625;521087;521087;-0.458;-0.505;0.748;70.0;0.0;0.0
09:46:42.289115;624;153283;159412;119819;148628;521087;521087;-0.454;-0.504;0.747;70.0;0.0;0.0
09:46:42.299333;625;153232;159410;119831;148629;521087;521087;-0.454;-0.506;0.745;70.0;0.0;0.0
09:46:42.309008;626;153182;159417;119832;148626;521087;521087;-0.458;-0.506;0.748;70.0;0.0;0.0
09:46:42.309008;627;153123;159415;119832;148618;521087;521087;-0.456;-0.505;0.748;70.0;0.0;0.0
09:46:42.318934;628;153059;159402;119842;148616;521087;521087;-0.457;-0.503;0.747;70.0;0.0;0.0
09:46:42.495910;629;152988;159400;119834;148601;521087;521087;-0.459;-0.507;0.744;70.0;0.0;0.0
09:46:42.503956;630;152926;159416;119840;148595;521087;521087;-0.458;-0.506;0.746;70.0;0.0;0.0
09:46:42.514006;631;152888;159431;119850;148588;521087;521087;-0.456;-0.505;0.747;70.0;0.0;0.0
09:46:42.519048;632;152846;159426;119854;148574;521087;521087;-0.457;-0.506;0.745;70.0;0.0;0.0
09:46:42.524053;633;152820;159436;119861;148566;521087;521087;-0.457;-0.505;0.746;70.0;0.0;0.0
09:46:42.689472;634;152792;159444;119859;148567;521087;521087;-0.456;-0.505;0.746;70.0;1123.9;0.0
09:46:42.699186;635;152766;159455;119864;148555;521087;521087;-0.456;-0.505;0.748;70.0;0.0;0.0
09:46:42.708947;636;152758;159460;119870;148551;521087;521087;-0.457;-0.504;0.747;70.0;0.0;0.0
09:46:42.719070;637;152756;159486;119871;148556;521087;521087;-0.458;-0.505;0.744;70.0;0.0;0.0
09:46:42.728911;638;152738;159483;119879;148559;521087;521087;-0.455;-0.506;0.747;70.0;0.0;0.0
09:46:42.899253;639;152741;159495;119886;148570;521087;521087;-0.457;-0.507;0.749;70.0;0.0;0.0
09:46:42.909097;640;152742;159506;119897;148569;521087;521087;-0.458;-0.507;0.749;70.0;0.0;0.0
09:46:42.909097;641;152742;159500;119896;148555;521087;521087;-0.455;-0.504;0.750;70.0;0.0;0.0
09:46:42.919138;642;152705;159478;119891;148530;521087;521087;-0.455;-0.504;0.746;70.0;0.0;0.0
09:46:42.924143;643;152648;159481;119894;148520;521087;521087;-0.457;-0.508;0.747;70.0;0.0;0.0
09:46:43.089185;644;152607;159507;119915;148534;521087;521087;-0.458;-0.506;0.748;70.0;0.0;0.0
09:46:43.109012;645;152562;159559;119954;148525;521087;521087;-0.456;-0.502;0.751;70.0;0.0;0.0
09:46:43.119102;646;152523;159589;119947;148493;521087;521087;-0.451;-0.505;0.748;70.0;0.0;0.0
09:46:43.119102;647;152452;159606;119926;148436;521087;521087;-0.452;-0.504;0.748;70.0;0.0;0.0
09:46:43.119102;648;152364;159611;119925;148367;521087;521087;-0.454;-0.505;0.750;70.0;0.0;0.0
09:46:43.289188;649;152286;159607;119913;148295;521087;521087;-0.450;-0.501;0.749;70.0;0.0;0.0
09:46:43.299275;650;152224;159597;119891;148223;521087;521087;-0.452;-0.505;0.749;71.0;0.0;0.0
09:46:43.308996;651;152176;159592;119893;148174;521087;521087;-0.454;-0.504;0.748;71.0;0.0;0.0
09:46:43.308996;652;152137;159612;119888;148124;521087;521087;-0.451;-0.502;0.751;71.0;0.0;0.0
09:46:43.319116;653;152088;159629;119882;148060;521087;521087;-0.447;-0.504;0.750;71.0;0.0;0.0
09:46:43.494198;654;152049;159640;119886;148017;521087;521087;-0.446;-0.504;0.752;71.0;0.0;0.0
09:46:43.504266;655;152025;159647;119877;147990;521087;521087;-0.451;-0.504;0.750;71.0;0.0;0.0
09:46:43.508790;656;152001;159654;119864;147956;521087;521087;-0.449;-0.503;0.751;71.0;0.0;0.0
09:46:43.508790;657;151963;159655;119875;147929;521087;521087;-0.449;-0.503;0.750;71.0;0.0;0.0
09:46:43.518973;658;151949;159663;119853;147904;521087;521087;-0.447;-0.504;0.751;71.0;0.0;0.0
09:46:43.689265;659;151915;159660;119844;147874;521087;521087;-0.447;-0.504;0.749;71.0;0.0;0.0
09:46:43.698856;660;151899;159665;119833;147862;521087;521087;-0.449;-0.504;0.750;71.0;0.0;0.0
09:46:43.709041;661;151872;159676;119831;147843;521087;521087;-0.447;-0.505;0.751;71.0;1048.5;0.0
09:46:43.719148;662;151851;159674;119830;147823;521087;521087;-0.448;-0.504;0.750;71.0;0.0;0.0
09:46:43.719148;663;151835;159685;119823;147803;521087;521087;-0.444;-0.503;0.750;71.0;0.0;0.0
09:46:43.889323;664;151834;159702;119826;147786;521087;521087;-0.444;-0.504;0.754;71.0;0.0;0.0
09:46:43.898876;665;151815;159679;119811;147756;521087;521087;-0.450;-0.503;0.751;71.0;0.0;0.0
09:46:43.908818;666;151775;159634;119782;147723;521087;521087;-0.448;-0.505;0.751;71.0;0.0;0.0
09:46:43.908818;667;151702;159580;119754;147693;521087;521087;-0.444;-0.502;0.751;71.0;0.0;0.0
09:46:43.918975;668;151618;159572;119753;147658;521087;521087;-0.446;-0.506;0.750;71.0;0.0;0.0
09:46:44.099151;669;151553;159555;119735;147648;521087;521087;-0.447;-0.505;0.750;71.0;0.0;0.0
09:46:44.099151;670;151463;159544;119723;147606;521087;521087;-0.444;-0.502;0.752;71.0;0.0;0.0
09:46:44.109141;671;151393;159553;119713;147574;521087;521087;-0.443;-0.504;0.750;71.0;0.0;0.0
09:46:44.118976;672;151304;159532;119705;147539;521087;521087;-0.445;-0.504;0.751;71.0;0.0;0.0
09:46:44.118976;673;151229;159536;119688;147513;521087;521087;-0.445;-0.505;0.753;71.0;0.0;0.0
09:46:44.299019;674;151158;159518;119688;147486;521087;521087;-0.443;-0.501;0.751;71.0;0.0;0.0
09:46:44.299019;675;151088;159499;119666;147469;521087;521087;-0.449;-0.505;0.747;71.0;0.0;0.0
09:46:44.309022;676;151014;159506;119660;147439;521087;521087;-0.448;-0.503;0.751;71.0;0.0;0.0
09:46:44.319208;677;150953;159523;119657;147425;521087;521087;-0.446;-0.503;0.751;71.0;0.0;0.0
09:46:44.319208;678;150893;159507;119653;147397;521087;521087;-0.446;-0.504;0.751;71.0;0.0;0.0
09:46:44.499130;679;150850;159506;119640;147374;521087;521087;-0.445;-0.503;0.751;71.0;0.0;0.0
09:46:44.509158;680;150775;159516;119639;147331;521087;521087;-0.444;-0.503;0.751;71.0;0.0;0.0
09:46:44.519179;681;150747;159514;119635;147327;521087;521087;-0.445;-0.502;0.751;71.0;0.0;0.0
09:46:44.524187;682;150713;159532;119631;147314;521087;521087;-0.446;-0.503;0.752;71.0;0.0;0.0
09:46:44.529214;683;150671;159507;119620;147298;521087;521087;-0.445;-0.503;0.753;71.0;944.2;0.0
09:46:44.699230;684;150637;159518;119611;147273;521087;521087;-0.444;-0.502;0.751;71.0;0.0;0.0
09:46:44.709071;685;150602;159526;119606;147255;521087;521087;-0.447;-0.504;0.751;71.0;0.0;0.0
09:46:44.709071;686;150575;159532;119612;147238;521087;521087;-0.446;-0.504;0.750;71.0;0.0;0.0
09:46:44.719131;687;150560;159532;119614;147240;521087;521087;-0.447;-0.504;0.751;71.0;0.0;0.0
09:46:44.728877;688;150541;159550;119600;147225;521087;521087;-0.445;-0.503;0.750;71.0;0.0;0.0
09:46:44.899104;689;150529;159538;119600;147221;521087;521087;-0.446;-0.504;0.751;71.0;0.0;0.0
09:46:44.899104;690;150521;159544;119608;147205;521087;521087;-0.445;-0.504;0.751;71.0;0.0;0.0
09:46:44.909244;691;150520;159546;119599;147202;521087;521087;-0.444;-0.503;0.753;71.0;0.0;0.0
09:46:44.919281;692;150498;159543;119589;147178;521087;521087;-0.449;-0.503;0.752;71.0;0.0;0.0
09:46:44.919281;693;150474;159517;119579;147158;521087;521087;-0.444;-0.504;0.751;71.0;0.0;0.0
09:46:45.098987;694;150416;159453;119555;147121;521087;521087;-0.444;-0.502;0.751;71.0;0.0;0.0
09:46:45.119201;695;150349;159437;119542;147105;521087;521087;-0.447;-0.508;0.749;71.0;0.0;0.0
09:46:45.129205;696;150287;159435;119549;147094;521087;521087;-0.445;-0.504;0.752;71.0;0.0;0.0
09:46:45.129205;697;150217;159431;119542;147065;521087;521087;-0.443;-0.502;0.753;71.0;0.0;0.0
09:46:45.129205;698;150175;159413;119537;147055;521087;521087;-0.445;-0.504;0.751;71.0;0.0;0.0
09:46:45.298983;699;150108;159392;119535;147026;521087;521087;-0.443;-0.503;0.751;71.0;0.0;0.0
09:46:45.298983;700;150055;159410;119531;147006;521087;521087;-0.445;-0.504;0.753;72.0;0.0;0.0
09:46:45.309106;701;150000;159401;119529;146973;521087;521087;-0.442;-0.502;0.753;72.0;0.0;0.0
09:46:45.319301;702;149946;159391;119519;146961;521087;521087;-0.444;-0.504;0.750;72.0;0.0;0.0
09:46:45.319301;703;149882;159392;119512;146934;521087;521087;-0.448;-0.504;0.752;72.0;0.0;0.0
09:46:45.504041;704;149835;159400;119522;146916;521087;521087;-0.445;-0.502;0.754;72.0;0.0;0.0
09:46:45.519134;705;149800;159411;119516;146893;521087;521087;-0.444;-0.504;0.751;72.0;951.2;0.0
09:46:45.524138;706;149763;159416;119512;146876;521087;521087;-0.444;-0.504;0.752;72.0;0.0;0.0
09:46:45.524138;707;149735;159410;119517;146871;521087;521087;-0.445;-0.503;0.751;72.0;0.0;0.0
09:46:45.529190;708;149703;159419;119518;146848;521087;521087;-0.446;-0.504;0.751;72.0;0.0;0.0
09:46:45.699227;709;149686;159413;119515;146834;521087;521087;-0.447;-0.504;0.753;72.0;0.0;0.0
09:46:45.699227;710;149662;159426;119511;146810;521087;521087;-0.445;-0.504;0.751;72.0;0.0;0.0
09:46:45.713812;711;149646;159431;119506;146792;521087;521087;-0.443;-0.502;0.753;72.0;0.0;0.0
09:46:45.718849;712;149637;159437;119516;146772;521087;521087;-0.444;-0.503;0.751;72.0;0.0;0.0
09:46:45.728885;713;149636;159444;119512;146763;521087;521087;-0.446;-0.504;0.752;72.0;0.0;0.0
09:46:45.899276;714;149626;159455;119514;146744;521087;521087;-0.444;-0.502;0.751;72.0;0.0;0.0
09:46:45.899276;715;149624;159458;119509;146726;521087;521087;-0.443;-0.503;0.750;72.0;0.0;0.0
09:46:45.913919;716;149613;159460;119521;146702;521087;521087;-0.445;-0.504;0.751;72.0;0.0;0.0
09:46:45.918975;717;149616;159469;119511;146695;521087;521087;-0.447;-0.504;0.751;72.0;0.0;0.0
09:46:45.929082;718;149629;159478;119522;146678;521087;521087;-0.442;-0.503;0.751;72.0;0.0;0.0
09:46:46.099056;719;149622;159493;119518;146658;521087;521087;-0.443;-0.504;0.754;72.0;0.0;0.0
09:46:46.099056;720;149628;159485;119516;146651;521087;521087;-0.450;-0.503;0.751;72.0;0.0;0.0
09:46:46.109166;721;149615;159432;119512;146633;521087;521087;-0.441;-0.503;0.753;72.0;0.0;0.0
09:46:46.118904;722;149569;159384;119467;146599;521087;521087;-0.441;-0.502;0.749;72.0;0.0;0.0
09:46:46.129170;723;149527;159373;119470;146597;521087;521087;-0.447;-0.507;0.749;72.0;0.0;0.0
09:46:46.299058;724;149475;159369;119475;146580;521087;521087;-0.443;-0.502;0.754;72.0;0.0;0.0
09:46:46.308933;725;149435;159372;119472;146560;521087;521087;-0.440;-0.502;0.752;72.0;0.0;0.0
09:46:46.313942;726;149405;159344;119460;146556;521087;521087;-0.443;-0.504;0.750;72.0;0.0;0.0
09:46:46.318991;727;149354;159346;119460;146529;521087;521087;-0.445;-0.503;0.753;72.0;0.0;0.0
09:46:46.329163;728;149311;159350;119462;146515;521087;521087;-0.446;-0.504;0.753;72.0;875.0;0.0
09:46:46.498844;729;149268;159334;119459;146495;521087;521087;-0.444;-0.501;0.751;72.0;0.0;0.0
09:46:46.498844;730;149222;159326;119452;146471;521087;521087;-0.446;-0.505;0.750;73.0;0.0;0.0
09:46:46.518976;731;149178;159334;119438;146452;521087;521087;-0.445;-0.503;0.752;73.0;0.0;0.0
09:46:46.529006;732;149154;159342;119450;146433;521087;521087;-0.443;-0.502;0.753;73.0;0.0;0.0
09:46:46.534012;733;149148;159350;119454;146424;521087;521087;-0.446;-0.504;0.750;73.0;0.0;0.0
09:46:46.704109;734;149114;159355;119464;146394;521087;521087;-0.445;-0.504;0.750;73.0;0.0;0.0
09:46:46.709164;735;149096;159366;119464;146379;521087;521087;-0.442;-0.503;0.752;73.0;0.0;0.0
09:46:46.719374;736;149093;159363;119471;146360;521087;521087;-0.445;-0.503;0.753;73.0;0.0;0.0
09:46:46.724382;737;149077;159377;119454;146327;521087;521087;-0.447;-0.504;0.751;73.0;0.0;0.0
09:46:46.728913;738;149074;159379;119460;146318;521087;521087;-0.444;-0.503;0.753;73.0;0.0;0.0
09:46:46.898907;739;149073;159381;119467;146295;521087;521087;-0.444;-0.503;0.751;73.0;0.0;0.0
09:46:46.908947;740;149073;159383;119470;146274;521087;521087;-0.444;-0.503;0.751;73.0;0.0;0.0
09:46:46.908947;741;149070;159394;119472;146247;521087;521087;-0.446;-0.503;0.750;73.0;0.0;0.0
09:46:46.924189;742;149079;159399;119482;146227;521087;521087;-0.445;-0.503;0.751;73.0;0.0;0.0
09:46:46.929246;743;149093;159408;119470;146214;521087;521087;-0.448;-0.504;0.750;73.0;0.0;0.0
09:46:47.099041;744;149091;159419;119478;146184;521087;521087;-0.442;-0.503;0.750;73.0;0.0;0.0
09:46:47.108951;745;149114;159435;119478;146173;521087;521087;-0.444;-0.503;0.754;72.0;0.0;0.0
09:46:47.113958;746;149137;159432;119480;146160;521087;521087;-0.447;-0.504;0.751;72.0;0.0;0.0
09:46:47.119022;747;149144;159408;119466;146136;521087;521087;-0.444;-0.503;0.753;72.0;0.0;0.0
09:46:47.128930;748;149124;159355;119436;146098;521087;521087;-0.441;-0.501;0.751;72.0;0.0;0.0
09:46:47.299113;749;149076;159326;119437;146054;521087;521087;-0.447;-0.507;0.749;72.0;0.0;0.0
09:46:47.308906;750;149045;159334;119443;146047;521087;521087;-0.443;-0.503;0.753;72.0;0.0;0.0
09:46:47.313913;751;149020;159328;119446;146023;521087;521087;-0.441;-0.502;0.753;72.0;0.0;0.0
09:46:47.318987;752;148987;159330;119443;145998;521087;521087;-0.442;-0.504;0.750;72.0;0.0;0.0
09:46:47.329063;753;148970;159331;119446;145986;521087;521087;-0.443;-0.502;0.751;72.0;0.0;0.0
09:46:47.499100;754;148920;159332;119447;145934;521087;521087;-0.445;-0.504;0.753;72.0;0.0;0.0
09:46:47.508942;755;148904;159322;119439;145918;521087;521087;-0.442;-0.502;0.751;72.0;0.0;0.0
09:46:47.513950;756;148883;159309;119433;145892;521087;521087;-0.447;-0.504;0.750;72.0;1052.7;0.0
09:46:47.528832;757;148849;159315;119438;145861;521087;521087;-0.447;-0.504;0.751;72.0;0.0;0.0
09:46:47.528832;758;148837;159326;119447;145842;521087;521087;-0.445;-0.502;0.753;72.0;0.0;0.0
09:46:47.699005;759;148841;159346;119454;145820;521087;521087;-0.443;-0.505;0.751;72.0;0.0;0.0
09:46:47.709265;760;148829;159345;119442;145788;521087;521087;-0.445;-0.504;0.751;72.0;0.0;0.0
09:46:47.709265;761;148823;159344;119450;145769;521087;521087;-0.444;-0.502;0.752;72.0;0.0;0.0
09:46:47.719236;762;148825;159358;119454;145740;521087;521087;-0.444;-0.503;0.752;72.0;0.0;0.0
09:46:47.728887;763;148845;159357;119453;145727;521087;521087;-0.443;-0.503;0.751;72.0;0.0;0.0
09:46:47.899011;764;148866;159361;119457;145712;521087;521087;-0.445;-0.503;0.750;72.0;0.0;0.0
09:46:47.914206;765;148872;159373;119455;145684;521087;521087;-0.444;-0.502;0.750;72.0;0.0;0.0
09:46:47.924264;766;148891;159375;119465;145656;521087;521087;-0.442;-0.504;0.751;72.0;0.0;0.0
09:46:47.933836;767;148911;159379;119460;145641;521087;521087;-0.446;-0.504;0.753;72.0;0.0;0.0
09:46:47.943913;768;148934;159396;119464;145612;521087;521087;-0.444;-0.503;0.751;72.0;0.0;0.0
09:46:48.099016;769;148964;159408;119466;145605;521087;521087;-0.444;-0.503;0.751;72.0;0.0;0.0
09:46:48.109032;770;148987;159406;119469;145581;521087;521087;-0.446;-0.503;0.751;72.0;0.0;0.0
09:46:48.119060;771;149013;159422;119472;145558;521087;521087;-0.443;-0.503;0.752;72.0;0.0;0.0
09:46:48.119060;772;149051;159423;119474;145543;521087;521087;-0.445;-0.503;0.751;72.0;0.0;0.0
09:46:48.129110;773;149081;159428;119475;145522;521087;521087;-0.446;-0.503;0.753;72.0;0.0;0.0
09:46:48.303920;774;149100;159387;119457;145486;521087;521087;-0.443;-0.502;0.753;72.0;0.0;0.0
09:46:48.319030;775;149086;159347;119440;145458;521087;521087;-0.445;-0.502;0.750;71.0;0.0;0.0
09:46:48.324038;776;149072;159327;119435;145436;521087;521087;-0.446;-0.508;0.750;71.0;0.0;0.0
09:46:48.334100;777;149066;159334;119446;145427;521087;521087;-0.446;-0.503;0.754;71.0;0.0;0.0
09:46:48.334100;778;149060;159330;119440;145401;521087;521087;-0.443;-0.502;0.752;71.0;0.0;0.0
09:46:48.339123;779;149058;159325;119444;145374;521087;521087;-0.444;-0.504;0.750;71.0;0.0;0.0
09:46:48.709282;780;149059;159325;119440;145356;521087;521087;-0.444;-0.502;0.752;71.0;0.0;0.0
09:46:48.718829;781;149052;159327;119445;145324;521087;521087;-0.444;-0.504;0.753;71.0;0.0;0.0
09:46:48.718829;782;149043;159307;119443;145293;521087;521087;-0.444;-0.502;0.751;71.0;0.0;0.0
09:46:48.729284;783;149027;159313;119436;145255;521087;521087;-0.447;-0.504;0.750;71.0;1123.0;0.0
09:46:48.738917;784;149031;159319;119440;145239;521087;521087;-0.447;-0.503;0.750;71.0;0.0;0.0
09:46:48.747099;785;149028;159323;119445;145213;521087;521087;-0.442;-0.503;0.753;71.0;0.0;0.0
09:46:48.749134;786;149046;159325;119449;145181;521087;521087;-0.444;-0.503;0.753;71.0;0.0;0.0
09:46:48.759025;787;149056;159331;119445;145145;521087;521087;-0.447;-0.504;0.751;71.0;0.0;0.0
09:46:48.768897;788;149075;159338;119448;145121;521087;521087;-0.443;-0.501;0.752;71.0;0.0;0.0
09:46:48.768897;789;149089;159354;119454;145097;521087;521087;-0.443;-0.502;0.753;71.0;0.0;0.0
09:46:49.114034;790;149109;159352;119447;145064;521087;521087;-0.445;-0.503;0.753;71.0;0.0;0.0
09:46:49.119064;791;149122;159355;119451;145043;521087;521087;-0.446;-0.503;0.751;71.0;0.0;0.0
09:46:49.119064;792;149158;159375;119460;145017;521087;521087;-0.443;-0.503;0.751;71.0;0.0;0.0
09:46:49.129267;793;149184;159366;119456;144999;521087;521087;-0.443;-0.504;0.750;71.0;0.0;0.0
09:46:49.138788;794;149199;159380;119455;144971;521087;521087;-0.444;-0.503;0.751;71.0;0.0;0.0
09:46:49.143793;795;149249;159383;119456;144966;521087;521087;-0.445;-0.503;0.753;71.0;0.0;0.0
09:46:49.148846;796;149274;159396;119462;144931;521087;521087;-0.444;-0.504;0.752;71.0;0.0;0.0
09:46:49.158824;797;149307;159393;119472;144908;521087;521087;-0.445;-0.503;0.752;71.0;0.0;0.0
09:46:49.158824;798;149335;159412;119472;144879;521087;521087;-0.443;-0.501;0.753;71.0;0.0;0.0
09:46:49.169172;799;149389;159413;119460;144879;521087;521087;-0.445;-0.503;0.752;71.0;0.0;0.0
09:46:49.508873;800;149423;159409;119471;144852;521087;521087;-0.447;-0.502;0.752;71.0;0.0;0.0
09:46:49.518938;801;149445;159369;119455;144809;521087;521087;-0.439;-0.502;0.754;71.0;0.0;0.0
09:46:49.529336;802;149446;159328;119437;144783;521087;521087;-0.444;-0.503;0.749;71.0;0.0;0.0
09:46:49.539284;803;149432;159326;119438;144766;521087;521087;-0.447;-0.506;0.751;71.0;0.0;0.0
09:46:49.539284;804;149439;159321;119451;144748;521087;521087;-0.445;-0.501;0.754;71.0;0.0;0.0
09:46:49.548138;805;149449;159328;119442;144725;521087;521087;-0.442;-0.503;0.752;71.0;0.0;0.0
09:46:49.549176;806;149458;159319;119439;144708;521087;521087;-0.442;-0.502;0.752;71.0;0.0;0.0
09:46:49.559177;807;149452;159320;119440;144676;521087;521087;-0.443;-0.503;0.753;71.0;0.0;0.0
09:46:49.568849;808;149455;159310;119447;144650;521087;521087;-0.443;-0.503;0.755;71.0;0.0;0.0
09:46:49.568849;809;149439;159309;119429;144609;521087;521087;-0.443;-0.502;0.753;71.0;1051.8;0.0
09:46:49.909027;810;149433;159302;119440;144582;521087;521087;-0.447;-0.503;0.752;71.0;0.0;0.0
09:46:49.918892;811;149432;159314;119440;144552;521087;521087;-0.444;-0.501;0.752;71.0;0.0;0.0
09:46:49.918892;812;149446;159333;119451;144521;521087;521087;-0.442;-0.503;0.754;71.0;0.0;0.0
09:46:49.928903;813;149460;159338;119447;144492;521087;521087;-0.441;-0.503;0.751;71.0;0.0;0.0
09:46:49.939240;814;149483;159348;119453;144475;521087;521087;-0.445;-0.502;0.753;71.0;0.0;0.0
09:46:49.949063;815;149513;159344;119462;144452;521087;521087;-0.444;-0.502;0.753;70.0;0.0;0.0
09:46:49.949063;816;149544;159350;119457;144436;521087;521087;-0.443;-0.502;0.754;70.0;0.0;0.0
09:46:49.958827;817;149550;159359;119455;144389;521087;521087;-0.445;-0.503;0.753;70.0;0.0;0.0
09:46:49.968877;818;149590;159355;119455;144377;521087;521087;-0.442;-0.503;0.752;70.0;0.0;0.0
09:46:49.968877;819;149633;159353;119457;144379;521087;521087;-0.445;-0.502;0.752;70.0;0.0;0.0
09:46:50.314000;820;149657;159368;119462;144350;521087;521087;-0.444;-0.503;0.752;70.0;0.0;0.0
09:46:50.319050;821;149689;159379;119478;144328;521087;521087;-0.443;-0.504;0.752;70.0;0.0;0.0
09:46:50.328818;822;149726;159388;119464;144311;521087;521087;-0.442;-0.504;0.752;70.0;0.0;0.0
09:46:50.328818;823;149775;159397;119473;144293;521087;521087;-0.445;-0.502;0.752;70.0;0.0;0.0
09:46:50.338892;824;149812;159410;119475;144262;521087;521087;-0.444;-0.501;0.752;70.0;0.0;0.0
09:46:50.348958;825;149858;159403;119477;144244;521087;521087;-0.446;-0.503;0.753;70.0;0.0;0.0
09:46:50.348958;826;149896;159412;119476;144217;521087;521087;-0.446;-0.503;0.753;70.0;0.0;0.0
09:46:50.359257;827;149921;159368;119466;144179;521087;521087;-0.440;-0.502;0.755;70.0;0.0;0.0
09:46:50.368746;828;149938;159326;119446;144163;521087;521087;-0.443;-0.502;0.750;70.0;0.0;0.0
09:46:50.368746;829;149926;159326;119441;144128;521087;521087;-0.443;-0.505;0.752;70.0;0.0;0.0
09:46:50.714051;830;149928;159336;119452;144105;521087;521087;-0.442;-0.501;0.756;70.0;0.0;0.0
09:46:50.719136;831;149957;159323;119459;144085;521087;521087;-0.443;-0.502;0.751;70.0;0.0;0.0
09:46:50.729175;832;149968;159325;119454;144056;521087;521087;-0.442;-0.503;0.751;70.0;0.0;0.0
09:46:50.729175;833;149971;159325;119457;144020;521087;521087;-0.442;-0.503;0.753;70.0;0.0;0.0
09:46:50.739328;834;149982;159327;119455;143991;521087;521087;-0.441;-0.503;0.754;70.0;0.0;0.0
09:46:50.749164;835;149987;159321;119449;143962;521087;521087;-0.443;-0.502;0.752;70.0;0.0;0.0
09:46:50.754169;836;149987;159307;119443;143941;521087;521087;-0.446;-0.504;0.752;70.0;0.0;0.0
09:46:50.759191;837;149998;159332;119447;143909;521087;521087;-0.445;-0.503;0.753;70.0;1057.9;0.0
09:46:50.769116;838;150007;159333;119461;143872;521087;521087;-0.445;-0.503;0.753;70.0;0.0;0.0
09:46:50.769116;839;150033;159344;119458;143850;521087;521087;-0.443;-0.504;0.751;70.0;0.0;0.0
09:46:51.119229;840;150060;159348;119464;143833;521087;521087;-0.445;-0.503;0.751;70.0;0.0;0.0
09:46:51.129187;841;150089;159360;119461;143810;521087;521087;-0.444;-0.503;0.753;70.0;0.0;0.0
09:46:51.129187;842;150115;159357;119467;143786;521087;521087;-0.445;-0.503;0.752;70.0;0.0;0.0
09:46:51.129187;843;150141;159364;119461;143766;521087;521087;-0.444;-0.503;0.751;70.0;0.0;0.0
09:46:51.138877;844;150169;159373;119462;143734;521087;521087;-0.442;-0.503;0.752;70.0;0.0;0.0
09:46:51.149556;845;150197;159369;119469;143709;521087;521087;-0.443;-0.503;0.751;70.0;0.0;0.0
09:46:51.154061;846;150240;159393;119471;143697;521087;521087;-0.444;-0.503;0.751;70.0;0.0;0.0
09:46:51.159084;847;150285;159393;119468;143675;521087;521087;-0.440;-0.504;0.751;70.0;0.0;0.0
09:46:51.169013;848;150328;159399;119487;143653;521087;521087;-0.445;-0.504;0.751;70.0;0.0;0.0
09:46:51.169013;849;150372;159413;119485;143631;521087;521087;-0.445;-0.503;0.751;70.0;0.0;0.0
09:46:51.519255;850;150418;159411;119486;143604;521087;521087;-0.441;-0.503;0.752;70.0;0.0;0.0
09:46:51.523760;851;150470;159434;119476;143579;521087;521087;-0.447;-0.503;0.752;70.0;0.0;0.0
09:46:51.528794;852;150512;159407;119480;143557;521087;521087;-0.446;-0.502;0.753;70.0;0.0;0.0
09:46:51.538851;853;150534;159368;119462;143510;521087;521087;-0.441;-0.501;0.753;70.0;0.0;0.0
09:46:51.543858;854;150544;159326;119449;143498;521087;521087;-0.442;-0.504;0.750;70.0;0.0;0.0
09:46:51.549946;855;150531;159334;119449;143469;521087;521087;-0.445;-0.505;0.753;70.0;0.0;0.0
09:46:51.549946;856;150548;159337;119452;143457;521087;521087;-0.441;-0.502;0.756;70.0;0.0;0.0
09:46:51.558974;857;150575;159338;119452;143429;521087;521087;-0.441;-0.503;0.752;70.0;0.0;0.0
09:46:51.569226;858;150582;159331;119446;143402;521087;521087;-0.443;-0.503;0.752;70.0;0.0;0.0
09:46:51.579164;859;150592;159329;119431;143367;521087;521087;-0.442;-0.503;0.754;70.0;0.0;0.0
09:46:51.709228;860;150593;159318;119439;143328;521087;521087;-0.442;-0.502;0.753;69.0;0.0;0.0
09:46:51.718780;861;150606;159298;119421;143303;521087;521087;-0.441;-0.502;0.753;69.0;0.0;0.0
09:46:51.723787;862;150606;159299;119414;143271;521087;521087;-0.445;-0.505;0.750;69.0;0.0;0.0
09:46:51.728828;863;150604;159297;119411;143241;521087;521087;-0.447;-0.502;0.753;69.0;0.0;0.0
09:46:51.738966;864;150616;159305;119411;143201;521087;521087;-0.437;-0.503;0.752;69.0;1071.2;0.0
09:46:51.909217;865;150643;159296;119421;143178;521087;521087;-0.443;-0.504;0.752;69.0;0.0;0.0
09:46:51.918780;866;150669;159280;119407;143164;521087;521087;-0.444;-0.505;0.750;69.0;0.0;0.0
09:46:51.923786;867;150658;159287;119403;143118;521087;521087;-0.446;-0.503;0.750;69.0;0.0;0.0
09:46:51.928837;868;150706;159292;119400;143114;521087;521087;-0.445;-0.502;0.753;69.0;0.0;0.0
09:46:51.938830;869;150731;159273;119398;143098;521087;521087;-0.446;-0.503;0.752;69.0;0.0;0.0
09:46:52.108824;870;150755;159265;119393;143094;521087;521087;-0.446;-0.503;0.750;69.0;0.0;0.0
09:46:52.119227;871;150773;159257;119401;143089;521087;521087;-0.445;-0.502;0.751;69.0;0.0;0.0
09:46:52.119227;872;150798;159248;119399;143077;521087;521087;-0.445;-0.504;0.751;69.0;0.0;0.0
09:46:52.129119;873;150823;159255;119404;143068;521087;521087;-0.449;-0.503;0.750;69.0;0.0;0.0
09:46:52.139212;874;150857;159234;119408;143064;521087;521087;-0.450;-0.504;0.749;69.0;0.0;0.0
09:46:52.308769;875;150885;159248;119418;143057;521087;521087;-0.449;-0.503;0.751;69.0;0.0;0.0
09:46:52.308769;876;150916;159242;119404;143047;521087;521087;-0.447;-0.502;0.752;69.0;0.0;0.0
09:46:52.319070;877;150956;159215;119406;143049;521087;521087;-0.451;-0.503;0.750;69.0;0.0;0.0
09:46:52.328864;878;150959;159163;119390;143034;521087;521087;-0.448;-0.505;0.751;69.0;0.0;0.0
09:46:52.338851;879;150939;159122;119374;143025;521087;521087;-0.450;-0.503;0.749;69.0;0.0;0.0
09:46:52.509240;880;150919;159098;119383;143024;521087;521087;-0.452;-0.508;0.748;69.0;0.0;0.0
09:46:52.518867;881;150912;159099;119402;143029;521087;521087;-0.451;-0.504;0.749;69.0;0.0;0.0
09:46:52.523875;882;150921;159097;119403;143035;521087;521087;-0.451;-0.504;0.750;69.0;0.0;0.0
09:46:52.533934;883;150926;159085;119402;143028;521087;521087;-0.450;-0.504;0.748;69.0;0.0;0.0
09:46:52.538964;884;150933;159072;119402;143031;521087;521087;-0.453;-0.506;0.751;69.0;0.0;0.0
09:46:52.709102;885;150923;159057;119403;143020;521087;521087;-0.453;-0.504;0.749;69.0;0.0;0.0
09:46:52.719151;886;150922;159025;119401;143012;521087;521087;-0.456;-0.504;0.746;69.0;0.0;0.0
09:46:52.719151;887;150921;159029;119397;143015;521087;521087;-0.455;-0.506;0.746;69.0;0.0;0.0
09:46:52.739271;888;150917;159029;119423;143015;521087;521087;-0.455;-0.505;0.748;69.0;0.0;0.0
09:46:52.739271;889;150940;159034;119432;143035;521087;521087;-0.455;-0.506;0.749;69.0;0.0;0.0
09:46:52.913811;890;150950;159040;119446;143025;521087;521087;-0.453;-0.508;0.747;68.0;1027.2;0.0
09:46:52.918862;891;150966;159024;119459;143022;521087;521087;-0.452;-0.507;0.748;68.0;0.0;0.0
09:46:52.918862;892;150983;159031;119473;143029;521087;521087;-0.453;-0.505;0.747;68.0;0.0;0.0
09:46:52.928950;893;151009;159038;119477;143036;521087;521087;-0.457;-0.507;0.746;68.0;0.0;0.0
09:46:52.938875;894;151033;159031;119500;143044;521087;521087;-0.456;-0.506;0.746;68.0;0.0;0.0
09:46:53.113909;895;151061;159043;119506;143038;521087;521087;-0.458;-0.507;0.746;68.0;0.0;0.0
09:46:53.118956;896;151090;159044;119521;143042;521087;521087;-0.458;-0.507;0.743;68.0;0.0;0.0
09:46:53.118956;897;151151;159057;119546;143070;521087;521087;-0.456;-0.507;0.746;68.0;0.0;0.0
09:46:53.129147;898;151199;159071;119581;143083;521087;521087;-0.457;-0.509;0.748;68.0;0.0;0.0
09:46:53.139269;899;151255;159076;119596;143102;521087;521087;-0.461;-0.508;0.744;68.0;0.0;0.0
09:46:53.308904;900;151286;159047;119584;143100;521087;521087;-0.456;-0.507;0.746;68.0;0.0;0.0
09:46:53.318883;901;151303;159012;119587;143085;521087;521087;-0.455;-0.508;0.745;68.0;0.0;0.0
09:46:53.318883;902;151316;159005;119603;143085;521087;521087;-0.458;-0.511;0.744;68.0;0.0;0.0
09:46:53.329001;903;151325;159008;119623;143102;521087;521087;-0.457;-0.508;0.747;68.0;0.0;0.0
09:46:53.339226;904;151355;159013;119644;143103;521087;521087;-0.456;-0.507;0.748;68.0;0.0;0.0
09:46:53.508811;905;151410;159027;119663;143113;521087;521087;-0.455;-0.509;0.744;68.0;0.0;0.0
09:46:53.518842;906;151424;159028;119669;143105;521087;521087;-0.458;-0.510;0.745;68.0;0.0;0.0
09:46:53.523850;907;151442;159036;119687;143101;521087;521087;-0.457;-0.508;0.746;68.0;0.0;0.0
09:46:53.528908;908;151450;159020;119686;143099;521087;521087;-0.457;-0.508;0.744;68.0;0.0;0.0
09:46:53.538861;909;151472;159015;119706;143107;521087;521087;-0.458;-0.510;0.744;68.0;0.0;0.0
09:46:53.713822;910;151502;159031;119727;143121;521087;521087;-0.460;-0.509;0.745;68.0;0.0;0.0
09:46:53.718863;911;151540;159040;119749;143141;521087;521087;-0.458;-0.509;0.744;68.0;0.0;0.0
09:46:53.729141;912;151571;159056;119767;143135;521087;521087;-0.457;-0.511;0.744;68.0;0.0;0.0
09:46:53.739101;913;151610;159062;119793;143134;521087;521087;-0.457;-0.510;0.744;68.0;0.0;0.0
09:46:53.739101;914;151664;159087;119813;143155;521087;521087;-0.457;-0.508;0.745;68.0;0.0;0.0
09:46:53.909109;915;151721;159100;119838;143171;521087;521087;-0.456;-0.507;0.747;68.0;0.0;0.0
09:46:53.918846;916;151794;159106;119848;143186;521087;521087;-0.456;-0.511;0.746;68.0;1044.6;0.0
09:46:53.928918;917;151855;159108;119871;143185;521087;521087;-0.458;-0.510;0.745;68.0;0.0;0.0
09:46:53.933926;918;151915;159121;119881;143190;521087;521087;-0.453;-0.507;0.745;68.0;0.0;0.0
09:46:53.943971;919;151938;159081;119876;143180;521087;521087;-0.451;-0.510;0.744;68.0;0.0;0.0
09:46:54.108965;920;151973;159072;119885;143181;521087;521087;-0.455;-0.514;0.742;67.0;0.0;0.0
09:46:54.118830;921;152014;159091;119915;143204;521087;521087;-0.456;-0.510;0.747;67.0;0.0;0.0
09:46:54.128884;922;152061;159104;119927;143207;521087;521087;-0.453;-0.507;0.747;67.0;0.0;0.0
09:46:54.128884;923;152122;159130;119943;143210;521087;521087;-0.450;-0.508;0.745;67.0;0.0;0.0
09:46:54.138785;924;152180;159140;119953;143204;521087;521087;-0.454;-0.510;0.746;67.0;0.0;0.0
09:46:54.308859;925;152232;159160;119985;143202;521087;521087;-0.455;-0.509;0.750;67.0;0.0;0.0
09:46:54.318831;926;152274;159193;119992;143174;521087;521087;-0.451;-0.504;0.749;67.0;0.0;0.0
09:46:54.318831;927;152345;159216;120010;143165;521087;521087;-0.452;-0.512;0.746;67.0;0.0;0.0
09:46:54.328846;928;152393;159241;120030;143133;521087;521087;-0.454;-0.508;0.747;67.0;0.0;0.0
09:46:54.338954;929;152444;159282;120052;143109;521087;521087;-0.452;-0.507;0.750;67.0;0.0;0.0
09:46:54.509168;930;152512;159332;120078;143083;521087;521087;-0.451;-0.510;0.749;67.0;0.0;0.0
09:46:54.518719;931;152579;159369;120092;143044;521087;521087;-0.449;-0.507;0.748;67.0;0.0;0.0
09:46:54.529175;932;152649;159402;120104;143009;521087;521087;-0.448;-0.506;0.747;67.0;0.0;0.0
09:46:54.529175;933;152704;159437;120119;142954;521087;521087;-0.447;-0.508;0.749;67.0;0.0;0.0
09:46:54.538884;934;152756;159484;120134;142905;521087;521087;-0.446;-0.504;0.750;67.0;0.0;0.0
09:46:54.709074;935;152841;159496;120135;142863;521087;521087;-0.449;-0.505;0.749;67.0;0.0;0.0
09:46:54.723981;936;152882;159472;120110;142792;521087;521087;-0.450;-0.505;0.751;67.0;0.0;0.0
09:46:54.729037;937;152889;159438;120095;142730;521087;521087;-0.445;-0.504;0.750;67.0;0.0;0.0
09:46:54.738951;938;152889;159437;120081;142671;521087;521087;-0.443;-0.506;0.748;67.0;0.0;0.0
09:46:54.738951;939;152897;159438;120081;142622;521087;521087;-0.443;-0.507;0.751;67.0;0.0;0.0
09:46:54.909018;940;152902;159446;120075;142566;521087;521087;-0.440;-0.504;0.752;67.0;981.0;0.0
09:46:54.918803;941;152913;159442;120068;142530;521087;521087;-0.440;-0.504;0.751;67.0;0.0;0.0
09:46:54.928931;942;152903;159429;120045;142469;521087;521087;-0.441;-0.505;0.750;67.0;0.0;0.0
09:46:54.933940;943;152909;159432;120034;142424;521087;521087;-0.444;-0.507;0.751;67.0;0.0;0.0
09:46:54.938965;944;152908;159427;120022;142379;521087;521087;-0.441;-0.504;0.751;67.0;0.0;0.0
09:46:55.108919;945;152914;159427;120010;142340;521087;521087;-0.444;-0.505;0.748;66.0;0.0;0.0
09:46:55.119115;946;152911;159424;120001;142294;521087;521087;-0.446;-0.505;0.751;66.0;0.0;0.0
09:46:55.128873;947;152908;159448;119999;142254;521087;521087;-0.444;-0.503;0.752;66.0;0.0;0.0
09:46:55.133880;948;152933;159447;119991;142233;521087;521087;-0.442;-0.505;0.751;66.0;0.0;0.0
09:46:55.143937;949;152940;159458;119992;142193;521087;521087;-0.443;-0.505;0.751;66.0;0.0;0.0
09:46:55.318718;950;152955;159467;119980;142162;521087;521087;-0.441;-0.504;0.753;66.0;0.0;0.0
09:46:55.329052;951;152968;159475;119975;142129;521087;521087;-0.442;-0.504;0.751;66.0;0.0;0.0
09:46:55.329052;952;152983;159469;119955;142105;521087;521087;-0.441;-0.504;0.750;66.0;0.0;0.0
09:46:55.329052;953;152982;159476;119949;142064;521087;521087;-0.443;-0.505;0.752;66.0;0.0;0.0
09:46:55.339050;954;153012;159479;119938;142042;521087;521087;-0.444;-0.505;0.751;66.0;0.0;0.0
09:46:55.509120;955;153019;159484;119936;142010;521087;521087;-0.444;-0.503;0.751;66.0;0.0;0.0
09:46:55.524180;956;153032;159497;119920;141981;521087;521087;-0.445;-0.504;0.751;66.0;0.0;0.0
09:46:55.533737;957;153062;159503;119921;141960;521087;521087;-0.443;-0.504;0.752;66.0;0.0;0.0
09:46:55.538765;958;153069;159511;119912;141924;521087;521087;-0.442;-0.503;0.750;66.0;0.0;0.0
09:46:55.538765;959;153098;159501;119911;141901;521087;521087;-0.439;-0.504;0.753;66.0;0.0;0.0
09:46:55.708804;960;153120;159516;119898;141879;521087;521087;-0.443;-0.504;0.752;66.0;0.0;0.0
09:46:55.718898;961;153138;159523;119885;141857;521087;521087;-0.443;-0.505;0.751;66.0;0.0;0.0
09:46:55.728856;962;153147;159524;119872;141820;521087;521087;-0.441;-0.504;0.750;66.0;0.0;0.0
09:46:55.733863;963;153187;159532;119876;141816;521087;521087;-0.441;-0.504;0.752;66.0;1034.3;0.0
09:46:55.738903;964;153188;159526;119863;141774;521087;521087;-0.445;-0.504;0.752;66.0;0.0;0.0
09:46:55.908736;965;153187;159462;119826;141744;521087;521087;-0.440;-0.504;0.753;66.0;0.0;0.0
09:46:55.923737;966;153148;159410;119794;141710;521087;521087;-0.440;-0.503;0.752;66.0;0.0;0.0
09:46:55.928792;967;153108;159389;119791;141692;521087;521087;-0.440;-0.506;0.752;66.0;0.0;0.0
09:46:55.938835;968;153071;159386;119783;141657;521087;521087;-0.438;-0.505;0.752;66.0;0.0;0.0
09:46:55.938835;969;153040;159382;119768;141646;521087;521087;-0.438;-0.502;0.754;66.0;0.0;0.0
09:46:56.108844;970;152998;159372;119750;141622;521087;521087;-0.440;-0.504;0.752;66.0;0.0;0.0
09:46:56.118864;971;152961;159364;119745;141603;521087;521087;-0.440;-0.504;0.752;66.0;0.0;0.0
09:46:56.128715;972;152919;159356;119744;141580;521087;521087;-0.442;-0.505;0.754;66.0;0.0;0.0
09:46:56.128715;973;152883;159349;119726;141549;521087;521087;-0.443;-0.503;0.752;66.0;0.0;0.0
09:46:56.139179;974;152848;159343;119714;141517;521087;521087;-0.441;-0.503;0.750;66.0;0.0;0.0
09:46:56.309167;975;152820;159336;119707;141500;521087;521087;-0.442;-0.505;0.751;65.0;0.0;0.0
09:46:56.318836;976;152788;159338;119705;141477;521087;521087;-0.444;-0.502;0.754;65.0;0.0;0.0
09:46:56.328864;977;152771;159361;119693;141447;521087;521087;-0.440;-0.503;0.752;65.0;0.0;0.0
09:46:56.338910;978;152754;159358;119693;141431;521087;521087;-0.440;-0.505;0.751;65.0;0.0;0.0
09:46:56.338910;979;152741;159360;119683;141413;521087;521087;-0.441;-0.503;0.753;65.0;0.0;0.0
09:46:56.509185;980;152732;159364;119676;141393;521087;521087;-0.441;-0.503;0.752;65.0;0.0;0.0
09:46:56.528797;981;152729;159353;119664;141374;521087;521087;-0.441;-0.504;0.753;65.0;0.0;0.0
09:46:56.538882;982;152734;159367;119663;141362;521087;521087;-0.442;-0.503;0.750;65.0;0.0;0.0
09:46:56.548947;983;152732;159373;119663;141342;521087;521087;-0.440;-0.504;0.753;65.0;0.0;0.0
09:46:56.554618;984;152737;159376;119649;141320;521087;521087;-0.441;-0.503;0.753;65.0;0.0;0.0
09:46:56.708835;985;152740;159380;119652;141300;521087;521087;-0.440;-0.504;0.753;65.0;0.0;0.0
09:46:56.718739;986;152755;159379;119642;141295;521087;521087;-0.440;-0.503;0.753;65.0;0.0;0.0
09:46:56.729102;987;152766;159403;119646;141276;521087;521087;-0.438;-0.504;0.752;65.0;0.0;0.0
09:46:56.738836;988;152782;159395;119634;141253;521087;521087;-0.438;-0.504;0.752;65.0;0.0;0.0
09:46:56.738836;989;152807;159396;119643;141250;521087;521087;-0.444;-0.503;0.750;65.0;0.0;0.0
09:46:56.929079;990;152837;159406;119637;141243;521087;521087;-0.439;-0.502;0.751;65.0;0.0;0.0
09:46:56.934091;991;152846;159418;119626;141218;521087;521087;-0.438;-0.503;0.754;65.0;0.0;0.0
09:46:56.939132;992;152880;159397;119613;141211;521087;521087;-0.444;-0.504;0.751;65.0;0.0;0.0
09:46:56.949121;993;152873;159357;119594;141176;521087;521087;-0.440;-0.503;0.752;65.0;0.0;0.0
09:46:56.949121;994;152843;159309;119570;141156;521087;521087;-0.438;-0.502;0.751;65.0;0.0;0.0
09:46:57.118723;995;152805;159291;119558;141133;521087;521087;-0.441;-0.507;0.751;65.0;1272.4;0.0
09:46:57.118723;996;152782;159297;119566;141131;521087;521087;-0.437;-0.503;0.754;65.0;0.0;0.0
09:46:57.129067;997;152761;159280;119567;141122;521087;521087;-0.437;-0.503;0.754;65.0;0.0;0.0
09:46:57.139114;998;152738;159276;119546;141101;521087;521087;-0.437;-0.504;0.752;65.0;0.0;0.0
09:46:57.139114;999;152713;159278;119543;141092;521087;521087;-0.441;-0.503;0.754;65.0;0.0;0.0
09:46:57.318862;1000;152693;159269;119537;141070;521087;521087;-0.439;-0.503;0.754;65.0;0.0;0.0
09:46:57.318862;1001;152682;159267;119530;141048;521087;521087;-0.439;-0.501;0.751;65.0;0.0;0.0
09:46:57.329213;1002;152657;159261;119519;141033;521087;521087;-0.441;-0.504;0.750;65.0;0.0;0.0
09:46:57.338816;1003;152638;159265;119514;141019;521087;521087;-0.443;-0.502;0.754;65.0;0.0;0.0
09:46:57.338816;1004;152630;159268;119521;141013;521087;521087;-0.440;-0.504;0.753;65.0;0.0;0.0
09:46:57.519176;1005;152643;159273;119522;141000;521087;521087;-0.438;-0.504;0.751;64.0;0.0;0.0
09:46:57.519176;1006;152642;159283;119505;140980;521087;521087;-0.442;-0.505;0.751;64.0;0.0;0.0
09:46:57.528857;1007;152649;159284;119509;140971;521087;521087;-0.441;-0.502;0.752;64.0;0.0;0.0
09:46:57.538972;1008;152653;159295;119508;140956;521087;521087;-0.440;-0.503;0.753;64.0;0.0;0.0
09:46:57.548989;1009;152671;159287;119493;140944;521087;521087;-0.441;-0.503;0.751;64.0;0.0;0.0
09:46:57.719179;1010;152685;159303;119511;140944;521087;521087;-0.439;-0.503;0.752;64.0;0.0;0.0
09:46:57.728733;1011;152685;159308;119501;140919;521087;521087;-0.438;-0.503;0.753;64.0;0.0;0.0
09:46:57.739065;1012;152715;159306;119498;140934;521087;521087;-0.439;-0.503;0.753;64.0;0.0;0.0
09:46:57.748808;1013;152737;159328;119493;140928;521087;521087;-0.438;-0.503;0.752;64.0;0.0;0.0
09:46:57.755346;1014;152766;159311;119492;140932;521087;521087;-0.438;-0.504;0.753;64.0;0.0;0.0
09:46:57.918823;1015;152789;159321;119488;140921;521087;521087;-0.437;-0.504;0.752;64.0;0.0;0.0
09:46:57.929011;1016;152837;159322;119482;140941;521087;521087;-0.439;-0.504;0.752;64.0;0.0;0.0
09:46:57.938817;1017;152861;159335;119480;140932;521087;521087;-0.438;-0.503;0.753;64.0;0.0;0.0
09:46:57.938817;1018;152892;159318;119478;140924;521087;521087;-0.439;-0.505;0.754;64.0;0.0;0.0
09:46:57.938817;1019;152927;159327;119478;140930;521087;521087;-0.442;-0.503;0.752;64.0;0.0;0.0
09:46:58.123910;1020;152933;159286;119462;140910;521087;521087;-0.439;-0.504;0.754;64.0;0.0;0.0
09:46:58.139169;1021;152913;159233;119435;140884;521087;521087;-0.440;-0.502;0.752;64.0;0.0;0.0
09:46:58.139169;1022;152905;159229;119432;140891;521087;521087;-0.441;-0.505;0.750;64.0;0.0;0.0
09:46:58.148953;1023;152880;159230;119441;140879;521087;521087;-0.441;-0.503;0.754;64.0;0.0;98.2
09:46:58.148953;1024;152888;159242;119439;140881;521087;521087;-0.441;-0.501;0.754;64.0;0.0;98.2
09:46:58.319159;1025;152876;159216;119429;140867;521087;521087;-0.439;-0.504;0.752;64.0;0.0;98.2
09:46:58.324165;1026;152873;159213;119423;140862;521087;521087;-0.439;-0.502;0.756;64.0;0.0;98.2
09:46:58.329200;1027;152870;159211;119429;140852;521087;521087;-0.444;-0.504;0.756;64.0;1193.9;98.2
09:46:58.338949;1028;152878;159192;119417;140857;521087;521087;-0.437;-0.501;0.750;64.0;0.0;98.2
09:46:58.348975;1029;152857;159190;119403;140838;521087;521087;-0.444;-0.503;0.751;64.0;0.0;98.2
09:46:58.523824;1030;152849;159186;119410;140835;521087;521087;-0.445;-0.504;0.752;64.0;0.0;98.2
09:46:58.533875;1031;152865;159206;119427;140822;521087;521087;-0.442;-0.502;0.752;64.0;0.0;98.2
09:46:58.533875;1032;152889;159215;119432;140821;521087;521087;-0.436;-0.504;0.754;64.0;0.0;98.2
09:46:58.538912;1033;152916;159217;119427;140817;521087;521087;-0.441;-0.504;0.752;64.0;0.0;98.2
09:46:58.549109;1034;152958;159221;119432;140825;521087;521087;-0.440;-0.503;0.753;64.0;0.0;98.2
09:46:58.718729;1035;152987;159219;119434;140815;521087;521087;-0.441;-0.503;0.750;64.0;0.0;98.2
09:46:58.728786;1036;153024;159227;119436;140814;521087;521087;-0.441;-0.505;0.752;64.0;0.0;98.2
09:46:58.744178;1037;153056;159232;119426;140820;521087;521087;-0.446;-0.503;0.751;64.0;0.0;98.2
09:46:58.748705;1038;153091;159243;119430;140820;521087;521087;-0.446;-0.503;0.752;64.0;0.0;98.2
09:46:58.753713;1039;153145;159245;119442;140832;521087;521087;-0.439;-0.504;0.752;64.0;0.0;98.2
09:46:58.919007;1040;153191;159265;119446;140841;521087;521087;-0.434;-0.503;0.752;63.0;0.0;98.2
09:46:58.929224;1041;153258;159279;119454;140854;521087;521087;-0.437;-0.504;0.755;63.0;0.0;98.2
09:46:58.934232;1042;153315;159271;119445;140865;521087;521087;-0.441;-0.505;0.753;63.0;0.0;98.2
09:46:58.938777;1043;153364;159254;119442;140868;521087;521087;-0.446;-0.505;0.752;63.0;0.0;98.2
09:46:58.953809;1044;153391;159217;119418;140864;521087;521087;-0.440;-0.504;0.751;63.0;0.0;98.2
09:46:59.123827;1045;153392;159187;119415;140854;521087;521087;-0.442;-0.504;0.750;63.0;0.0;98.2
09:46:59.139013;1046;153410;159171;119415;140869;521087;521087;-0.441;-0.506;0.750;63.0;0.0;98.2
09:46:59.139013;1047;153430;159180;119426;140873;521087;521087;-0.439;-0.504;0.753;63.0;0.0;98.2
09:46:59.139013;1048;153460;159182;119419;140872;521087;521087;-0.438;-0.505;0.751;63.0;0.0;98.2
09:46:59.148964;1049;153476;159181;119420;140880;521087;521087;-0.439;-0.503;0.750;63.0;0.0;98.2
09:46:59.318682;1050;153498;159191;119418;140879;521087;521087;-0.439;-0.507;0.751;63.0;0.0;98.2
09:46:59.329022;1051;153505;159197;119427;140872;521087;521087;-0.437;-0.503;0.753;63.0;0.0;98.2
09:46:59.329022;1052;153525;159179;119417;140873;521087;521087;-0.440;-0.502;0.750;63.0;0.0;98.2
09:46:59.338817;1053;153540;159185;119401;140883;521087;521087;-0.445;-0.504;0.751;63.0;0.0;98.2
09:46:59.348729;1054;153569;159196;119416;140897;521087;521087;-0.443;-0.503;0.753;63.0;0.0;98.2
09:46:59.518879;1055;153579;159203;119432;140875;521087;521087;-0.440;-0.504;0.751;62.0;1124.8;98.2
09:46:59.528807;1056;153620;159229;119431;140873;521087;521087;-0.438;-0.505;0.752;62.0;0.0;98.2
09:46:59.528807;1057;153656;159228;119433;140870;521087;521087;-0.437;-0.503;0.753;62.0;0.0;98.2
09:46:59.539131;1058;153694;159234;119434;140869;521087;521087;-0.435;-0.503;0.752;62.0;0.0;98.2
09:46:59.548848;1059;153742;159238;119453;140870;521087;521087;-0.437;-0.503;0.752;62.0;0.0;98.2
09:46:59.729200;1060;153789;159237;119440;140875;521087;521087;-0.442;-0.505;0.752;62.0;0.0;98.2
09:46:59.739147;1061;153830;159250;119448;140875;521087;521087;-0.439;-0.504;0.751;62.0;0.0;98.2
09:46:59.744152;1062;153887;159234;119444;140886;521087;521087;-0.441;-0.505;0.754;62.0;0.0;98.2
09:46:59.744152;1063;153943;159253;119443;140891;521087;521087;-0.444;-0.505;0.751;62.0;0.0;98.2
09:46:59.748685;1064;153985;159234;119421;140887;521087;521087;-0.441;-0.505;0.753;62.0;0.0;98.2
09:46:59.918802;1065;153999;159197;119409;140870;521087;521087;-0.439;-0.503;0.752;62.0;0.0;98.2
09:46:59.928928;1066;154003;159176;119419;140872;521087;521087;-0.439;-0.507;0.750;62.0;0.0;98.2
09:46:59.928928;1067;154008;159195;119426;140874;521087;521087;-0.437;-0.506;0.754;62.0;0.0;98.2
09:46:59.938827;1068;154032;159190;119436;140869;521087;521087;-0.435;-0.502;0.755;62.0;0.0;98.2
09:46:59.948811;1069;154058;159203;119430;140871;521087;521087;-0.436;-0.504;0.751;62.0;0.0;98.2
09:47:00.129017;1070;154077;159202;119424;140862;521087;521087;-0.439;-0.505;0.754;62.0;0.0;98.2
09:47:00.138904;1071;154112;159204;119437;140873;521087;521087;-0.439;-0.504;0.754;62.0;0.0;98.2
09:47:00.148897;1072;154117;159205;119427;140853;521087;521087;-0.439;-0.502;0.751;62.0;0.0;98.2
09:47:00.156914;1073;154122;159195;119422;140843;521087;521087;-0.441;-0.506;0.750;62.0;0.0;98.2
09:47:00.158981;1074;154141;159204;119431;140838;521087;521087;-0.440;-0.505;0.753;62.0;0.0;98.2
09:47:00.319169;1075;154185;159228;119431;140842;521087;521087;-0.439;-0.503;0.754;61.0;0.0;98.2
09:47:00.329156;1076;154223;159235;119442;140844;521087;521087;-0.439;-0.505;0.753;61.0;0.0;98.2
09:47:00.339056;1077;154252;159236;119436;140835;521087;521087;-0.436;-0.504;0.753;61.0;0.0;98.2
09:47:00.339056;1078;154305;159251;119441;140845;521087;521087;-0.438;-0.503;0.753;61.0;0.0;98.2
09:47:00.349006;1079;154346;159253;119449;140834;521087;521087;-0.439;-0.504;0.752;61.0;0.0;98.2
09:47:00.518962;1080;154398;159269;119448;140839;521087;521087;-0.440;-0.503;0.753;61.0;0.0;98.2
09:47:00.528754;1081;154455;159258;119439;140852;521087;521087;-0.442;-0.504;0.753;61.0;0.0;98.2
09:47:00.528754;1082;154486;159263;119445;140834;521087;521087;-0.441;-0.503;0.753;61.0;1071.2;98.2
09:47:00.539055;1083;154523;159228;119429;140825;521087;521087;-0.435;-0.503;0.755;61.0;0.0;98.2
09:47:00.548969;1084;154520;159193;119406;140813;521087;521087;-0.438;-0.503;0.750;61.0;0.0;98.2
09:47:00.718873;1085;154521;159187;119411;140816;521087;521087;-0.442;-0.508;0.750;61.0;0.0;98.2
09:47:00.729033;1086;154535;159197;119428;140816;521087;521087;-0.436;-0.503;0.755;61.0;0.0;98.2
09:47:00.738831;1087;154547;159201;119420;140806;521087;521087;-0.436;-0.504;0.752;61.0;0.0;98.2
09:47:00.738831;1088;154586;159206;119424;140816;521087;521087;-0.439;-0.505;0.751;61.0;0.0;98.2
09:47:00.748862;1089;154603;159205;119428;140810;521087;521087;-0.439;-0.506;0.753;61.0;0.0;98.2
09:47:00.923880;1090;154620;159204;119423;140807;521087;521087;-0.436;-0.501;0.752;61.0;0.0;98.2
09:47:00.934789;1091;154631;159204;119424;140797;521087;521087;-0.441;-0.505;0.751;61.0;0.0;98.2
09:47:00.939786;1092;154637;159206;119407;140791;521087;521087;-0.442;-0.503;0.752;61.0;0.0;98.2
09:47:00.947427;1093;154672;159211;119420;140800;521087;521087;-0.437;-0.503;0.752;61.0;0.0;98.2
09:47:00.954964;1094;154707;159229;119432;140799;521087;521087;-0.439;-0.505;0.752;61.0;0.0;98.2
09:47:01.118818;1095;154734;159229;119428;140793;521087;521087;-0.438;-0.505;0.752;60.0;0.0;98.2
09:47:01.128802;1096;154761;159247;119432;140804;521087;521087;-0.438;-0.504;0.753;60.0;0.0;98.2
09:47:01.138983;1097;154810;159256;119433;140811;521087;521087;-0.439;-0.503;0.752;60.0;0.0;98.2
09:47:01.148835;1098;154849;159261;119430;140810;521087;521087;-0.439;-0.504;0.752;60.0;0.0;98.2
09:47:01.148835;1099;154894;159268;119428;140823;521087;521087;-0.438;-0.504;0.753;60.0;0.0;98.2
09:47:01.325566;1100;154936;159262;119431;140821;521087;521087;-0.438;-0.503;0.753;60.0;0.0;98.2
09:47:01.332558;1101;154984;159265;119431;140830;521087;521087;-0.442;-0.504;0.752;60.0;0.0;98.2
09:47:01.340554;1102;155023;159268;119429;140835;521087;521087;-0.440;-0.504;0.752;60.0;0.0;98.2
09:47:01.347547;1103;155042;159233;119410;140819;521087;521087;-0.434;-0.503;0.754;60.0;0.0;98.2
09:47:01.348786;1104;155042;159187;119390;140816;521087;521087;-0.437;-0.505;0.750;60.0;0.0;98.2
09:47:01.518989;1105;155029;159180;119395;140809;521087;521087;-0.438;-0.508;0.752;60.0;0.0;98.2
09:47:01.528822;1106;155044;159193;119388;140823;521087;521087;-0.436;-0.503;0.755;60.0;0.0;98.2
09:47:01.538950;1107;155051;159182;119392;140816;521087;521087;-0.437;-0.505;0.751;60.0;0.0;98.2
09:47:01.538950;1108;155057;159180;119378;140814;521087;521087;-0.435;-0.505;0.751;60.0;986.1;98.2
09:47:01.548657;1109;155070;159176;119382;140813;521087;521087;-0.437;-0.506;0.754;60.0;0.0;98.2
09:47:01.718912;1110;155091;159171;119392;140827;521087;521087;-0.437;-0.503;0.753;60.0;0.0;98.2
09:47:01.729133;1111;155091;159162;119378;140813;521087;521087;-0.441;-0.504;0.750;60.0;0.0;98.2
09:47:01.738716;1112;155083;159160;119380;140811;521087;521087;-0.441;-0.505;0.751;60.0;0.0;98.2
09:47:01.738716;1113;155090;159147;119382;140818;521087;521087;-0.442;-0.503;0.751;60.0;0.0;98.2
09:47:01.748711;1114;155102;159177;119387;140816;521087;521087;-0.440;-0.504;0.752;60.0;0.0;98.2
09:47:01.918767;1115;155125;159174;119372;140811;521087;521087;-0.438;-0.503;0.753;60.0;0.0;98.2
09:47:01.928999;1116;155132;159171;119379;140802;521087;521087;-0.440;-0.505;0.751;60.0;0.0;98.2
09:47:01.939075;1117;155167;159173;119382;140827;521087;521087;-0.442;-0.503;0.752;60.0;0.0;98.2
09:47:01.939075;1118;155199;159182;119376;140841;521087;521087;-0.443;-0.503;0.752;60.0;0.0;98.2
09:47:01.954139;1119;155229;159174;119385;140850;521087;521087;-0.443;-0.505;0.751;60.0;0.0;98.2
09:47:02.118992;1120;155241;159158;119383;140848;521087;521087;-0.444;-0.504;0.750;59.0;0.0;98.2
09:47:02.128667;1121;155285;159148;119385;140870;521087;521087;-0.441;-0.505;0.752;59.0;0.0;98.2
09:47:02.138976;1122;155297;159157;119375;140848;521087;521087;-0.446;-0.505;0.752;59.0;0.0;98.2
09:47:02.148779;1123;155334;159145;119379;140865;521087;521087;-0.446;-0.505;0.750;59.0;0.0;98.2
09:47:02.153787;1124;155351;159109;119366;140871;521087;521087;-0.441;-0.505;0.752;59.0;0.0;98.2
09:47:02.318787;1125;155342;159070;119351;140865;521087;521087;-0.442;-0.504;0.750;59.0;0.0;98.2
09:47:02.328828;1126;155344;159048;119346;140884;521087;521087;-0.444;-0.508;0.749;59.0;801.7;98.2
09:47:02.338880;1127;155336;159040;119367;140906;521087;521087;-0.441;-0.504;0.753;59.0;0.0;98.2
09:47:02.348916;1128;155348;159033;119348;140934;521087;521087;-0.442;-0.505;0.752;59.0;0.0;98.2
09:47:02.348916;1129;155358;159028;119363;140944;521087;521087;-0.445;-0.505;0.750;59.0;0.0;98.2
09:47:02.519092;1130;155348;159036;119358;140959;521087;521087;-0.447;-0.507;0.751;59.0;0.0;98.2
09:47:02.534018;1131;155343;159034;119359;140975;521087;521087;-0.446;-0.504;0.751;59.0;0.0;98.2
09:47:02.539054;1132;155320;159020;119355;140985;521087;521087;-0.447;-0.505;0.749;59.0;0.0;98.2
09:47:02.548849;1133;155301;159024;119364;140996;521087;521087;-0.450;-0.508;0.748;59.0;0.0;98.2
09:47:02.553855;1134;155291;159028;119343;141014;521087;521087;-0.447;-0.506;0.749;59.0;0.0;98.2
09:47:02.718769;1135;155262;159030;119345;141013;521087;521087;-0.446;-0.507;0.750;59.0;0.0;98.2
09:47:02.729016;1136;155256;159034;119350;141030;521087;521087;-0.447;-0.507;0.750;59.0;0.0;98.2
09:47:02.738652;1137;155252;159046;119348;141043;521087;521087;-0.448;-0.506;0.749;59.0;0.0;98.2
09:47:02.748658;1138;155244;159019;119329;141062;521087;521087;-0.450;-0.506;0.749;59.0;0.0;98.2
09:47:02.748658;1139;155246;159008;119316;141071;521087;521087;-0.448;-0.506;0.748;59.0;0.0;98.2
09:47:02.929162;1140;155232;159010;119338;141072;521087;521087;-0.449;-0.506;0.750;59.0;0.0;98.2
09:47:02.938775;1141;155235;159001;119332;141085;521087;521087;-0.453;-0.507;0.749;59.0;0.0;98.2
09:47:02.943782;1142;155238;158978;119331;141108;521087;521087;-0.456;-0.506;0.746;59.0;0.0;98.2
09:47:02.953830;1143;155219;158928;119307;141113;521087;521087;-0.450;-0.508;0.748;59.0;0.0;98.2
09:47:02.958870;1144;155171;158895;119307;141105;521087;521087;-0.449;-0.509;0.746;59.0;726.5;98.2
09:47:03.128681;1145;155135;158879;119323;141112;521087;521087;-0.453;-0.510;0.748;59.0;0.0;98.2
09:47:03.138877;1146;155137;158862;119320;141141;521087;521087;-0.449;-0.507;0.748;59.0;0.0;98.2
09:47:03.148858;1147;155142;158857;119329;141162;521087;521087;-0.448;-0.507;0.748;59.0;0.0;98.2
09:47:03.158941;1148;155156;158845;119335;141180;521087;521087;-0.452;-0.510;0.747;59.0;0.0;98.2
09:47:03.160462;1149;155172;158833;119358;141216;521087;521087;-0.453;-0.508;0.750;59.0;0.0;98.2
09:47:03.328966;1150;155193;158837;119361;141248;521087;521087;-0.452;-0.506;0.747;58.0;0.0;98.2
09:47:03.328966;1151;155214;158831;119360;141277;521087;521087;-0.457;-0.509;0.745;58.0;0.0;98.2
09:47:03.338742;1152;155240;158847;119386;141318;521087;521087;-0.455;-0.508;0.746;58.0;0.0;98.2
09:47:03.348753;1153;155279;158864;119412;141363;521087;521087;-0.453;-0.507;0.748;58.0;0.0;98.2
09:47:03.353757;1154;155329;158871;119428;141394;521087;521087;-0.454;-0.508;0.747;58.0;0.0;98.2
09:47:03.529111;1155;155379;158908;119450;141421;521087;521087;-0.451;-0.508;0.746;58.0;0.0;98.2
09:47:03.529111;1156;155441;158910;119465;141458;521087;521087;-0.453;-0.508;0.746;58.0;0.0;98.2
09:47:03.543784;1157;155498;158921;119472;141482;521087;521087;-0.449;-0.507;0.749;58.0;0.0;98.2
09:47:03.548817;1158;155560;158929;119490;141496;521087;521087;-0.450;-0.508;0.749;58.0;0.0;98.2
09:47:03.558765;1159;155624;158937;119503;141529;521087;521087;-0.456;-0.511;0.746;58.0;0.0;98.2
09:47:03.729106;1160;155699;158932;119510;141569;521087;521087;-0.454;-0.506;0.747;58.0;0.0;98.2
09:47:03.729106;1161;155739;158903;119506;141583;521087;521087;-0.450;-0.507;0.748;58.0;0.0;98.2
09:47:03.748807;1162;155764;158876;119515;141595;521087;521087;-0.453;-0.513;0.746;58.0;0.0;98.2
09:47:03.753818;1163;155788;158903;119547;141632;521087;521087;-0.452;-0.508;0.746;58.0;0.0;98.2
09:47:03.758851;1164;155830;158924;119552;141658;521087;521087;-0.447;-0.507;0.750;58.0;0.0;98.2
09:47:03.928781;1165;155902;158943;119558;141693;521087;521087;-0.447;-0.506;0.747;58.0;809.5;98.2
09:47:03.928781;1166;155944;158971;119563;141701;521087;521087;-0.451;-0.509;0.748;58.0;0.0;98.2
09:47:03.938755;1167;155991;158993;119585;141715;521087;521087;-0.448;-0.506;0.750;58.0;0.0;98.2
09:47:03.948646;1168;156030;158987;119581;141726;521087;521087;-0.451;-0.506;0.748;58.0;0.0;98.2
09:47:03.948646;1169;156065;159000;119577;141733;521087;521087;-0.453;-0.507;0.746;58.0;0.0;98.2
09:47:04.128926;1170;156086;159032;119605;141730;521087;521087;-0.448;-0.504;0.750;59.0;0.0;98.2
09:47:04.128926;1171;156140;159076;119628;141736;521087;521087;-0.448;-0.506;0.751;59.0;0.0;98.2
09:47:04.138693;1172;156187;159102;119635;141736;521087;521087;-0.446;-0.507;0.749;59.0;0.0;98.2
09:47:04.148736;1173;156246;159139;119650;141728;521087;521087;-0.446;-0.505;0.748;59.0;0.0;98.2
09:47:04.158785;1174;156286;159160;119649;141691;521087;521087;-0.445;-0.506;0.750;59.0;0.0;98.2
09:47:04.328834;1175;156320;159195;119642;141658;521087;521087;-0.442;-0.506;0.750;59.0;0.0;98.2
09:47:04.328834;1176;156363;159216;119649;141637;521087;521087;-0.442;-0.505;0.750;59.0;0.0;98.2
09:47:04.338733;1177;156397;159208;119644;141605;521087;521087;-0.444;-0.505;0.751;59.0;0.0;98.2
09:47:04.348901;1178;156419;159177;119626;141582;521087;521087;-0.444;-0.508;0.751;59.0;0.0;98.2
09:47:04.358840;1179;156396;159159;119604;141557;521087;521087;-0.442;-0.503;0.749;59.0;0.0;98.2
09:47:04.528715;1180;156382;159151;119592;141530;521087;521087;-0.444;-0.507;0.749;59.0;0.0;98.2
09:47:04.528715;1181;156357;159156;119578;141506;521087;521087;-0.443;-0.507;0.752;59.0;0.0;98.2
09:47:04.538768;1182;156353;159157;119590;141490;521087;521087;-0.440;-0.503;0.751;59.0;0.0;98.2
09:47:04.548772;1183;156351;159165;119586;141472;521087;521087;-0.438;-0.504;0.750;59.0;0.0;98.2
09:47:04.559100;1184;156351;159170;119577;141452;521087;521087;-0.441;-0.507;0.752;59.0;0.0;98.2
09:47:04.729020;1185;156347;159166;119569;141434;521087;521087;-0.441;-0.506;0.753;59.0;0.0;98.2
09:47:04.738646;1186;156342;159156;119559;141422;521087;521087;-0.439;-0.504;0.750;59.0;0.0;98.2
09:47:04.748806;1187;156334;159163;119554;141405;521087;521087;-0.443;-0.507;0.750;59.0;0.0;98.2
09:47:04.748806;1188;156331;159168;119548;141398;521087;521087;-0.440;-0.505;0.749;59.0;0.0;98.2
09:47:04.762009;1189;156326;159184;119543;141377;521087;521087;-0.440;-0.506;0.750;59.0;1104.1;98.2
09:47:04.928925;1190;156345;159192;119532;141369;521087;521087;-0.440;-0.507;0.752;59.0;0.0;98.2
09:47:04.928925;1191;156353;159194;119528;141363;521087;521087;-0.442;-0.505;0.752;59.0;0.0;98.2
09:47:04.938708;1192;156370;159210;119527;141353;521087;521087;-0.439;-0.504;0.752;59.0;0.0;98.2
09:47:04.948735;1193;156386;159218;119526;141345;521087;521087;-0.440;-0.505;0.750;59.0;0.0;98.2
09:47:04.958977;1194;156384;159228;119516;141317;521087;521087;-0.441;-0.505;0.750;59.0;0.0;98.2
09:47:05.128880;1195;156403;159232;119506;141316;521087;521087;-0.442;-0.505;0.751;60.0;0.0;98.2
09:47:05.138926;1196;156433;159235;119506;141318;521087;521087;-0.440;-0.505;0.750;60.0;0.0;98.2
09:47:05.148984;1197;156447;159231;119499;141317;521087;521087;-0.441;-0.505;0.752;60.0;422.7;98.2
09:47:05.159055;1198;156472;159253;119501;141317;521087;521087;-0.440;-0.505;0.750;60.0;0.0;98.2
09:47:05.162095;1199;156506;159264;119510;141317;521087;521087;-0.442;-0.505;0.751;60.0;0.0;98.2
09:47:05.328666;1200;156514;159276;119492;141298;521087;521087;-0.440;-0.505;0.750;60.0;0.0;98.2
09:47:05.338759;1201;156554;159278;119484;141309;521087;521087;-0.444;-0.505;0.751;60.0;0.0;98.2
09:47:05.338759;1202;156591;159280;119473;141323;521087;521087;-0.438;-0.506;0.752;60.0;0.0;98.2
09:47:05.348982;1203;156622;159305;119478;141314;521087;521087;-0.438;-0.505;0.753;60.0;0.0;98.2
09:47:05.358989;1204;156647;159270;119456;141309;521087;521087;-0.442;-0.504;0.752;60.0;0.0;98.2
09:47:05.529029;1205;156648;159220;119437;141296;521087;521087;-0.438;-0.505;0.752;60.0;0.0;98.2
09:47:05.539086;1206;156604;159178;119401;141278;521087;521087;-0.437;-0.503;0.750;60.0;0.0;98.2
09:47:05.544093;1207;156573;159171;119400;141274;521087;521087;-0.439;-0.508;0.750;60.0;0.0;98.2
09:47:05.554145;1208;156558;159181;119404;141274;521087;521087;-0.437;-0.506;0.753;60.0;0.0;98.2
09:47:05.562684;1209;156553;159192;119401;141275;521087;521087;-0.437;-0.503;0.753;60.0;0.0;98.2
09:47:05.728951;1210;156536;159167;119381;141276;521087;521087;-0.437;-0.506;0.750;61.0;0.0;98.2
09:47:05.739089;1211;156525;159161;119384;141278;521087;521087;-0.439;-0.506;0.753;61.0;0.0;98.2
09:47:05.739089;1212;156524;159161;119371;141273;521087;521087;-0.439;-0.504;0.755;61.0;0.0;98.2
09:47:05.748736;1213;156504;159153;119358;141266;521087;521087;-0.436;-0.503;0.753;61.0;0.0;98.2
09:47:05.759072;1214;156492;159141;119344;141268;521087;521087;-0.441;-0.506;0.750;61.0;0.0;98.2
09:47:05.928735;1215;156471;159134;119346;141259;521087;521087;-0.439;-0.504;0.752;61.0;0.0;98.2
09:47:05.938989;1216;156473;159170;119349;141257;521087;521087;-0.440;-0.503;0.753;61.0;0.0;98.2
09:47:05.938989;1217;156480;159177;119344;141256;521087;521087;-0.441;-0.505;0.751;61.0;0.0;98.2
09:47:05.948972;1218;156491;159180;119334;141257;521087;521087;-0.436;-0.505;0.751;61.0;0.0;98.2
09:47:05.959035;1219;156489;159182;119337;141246;521087;521087;-0.434;-0.504;0.752;61.0;0.0;98.2
09:47:06.133969;1220;156503;159194;119329;141256;521087;521087;-0.438;-0.504;0.753;61.0;0.0;98.2
09:47:06.144027;1221;156510;159207;119324;141259;521087;521087;-0.438;-0.504;0.752;61.0;0.0;98.2
09:47:06.149081;1222;156520;159183;119317;141270;521087;521087;-0.440;-0.504;0.752;61.0;0.0;98.2
09:47:06.158787;1223;156543;159196;119316;141274;521087;521087;-0.437;-0.503;0.752;61.0;0.0;98.2
09:47:06.162807;1224;156556;159200;119310;141273;521087;521087;-0.440;-0.504;0.752;61.0;0.0;98.2
09:47:06.328725;1225;156581;159211;119320;141284;521087;521087;-0.438;-0.503;0.751;61.0;0.0;98.2
09:47:06.338773;1226;156604;159217;119304;141294;521087;521087;-0.440;-0.505;0.752;61.0;0.0;98.2
09:47:06.343780;1227;156628;159221;119302;141307;521087;521087;-0.440;-0.505;0.752;61.0;0.0;98.2
09:47:06.348928;1228;156653;159233;119310;141310;521087;521087;-0.439;-0.503;0.751;61.0;0.0;98.2
09:47:06.363346;1229;156684;159246;119304;141311;521087;521087;-0.434;-0.504;0.755;61.0;0.0;98.2
09:47:06.528766;1230;156724;159236;119297;141339;521087;521087;-0.438;-0.504;0.754;61.0;0.0;98.2
09:47:06.538772;1231;156727;159203;119279;141323;521087;521087;-0.441;-0.505;0.751;61.0;0.0;98.2
09:47:06.548828;1232;156708;159138;119245;141317;521087;521087;-0.437;-0.503;0.752;61.0;0.0;98.2
09:47:06.553833;1233;156678;159114;119231;141324;521087;521087;-0.438;-0.505;0.750;61.0;0.0;98.2
09:47:06.558945;1234;156648;159101;119206;141333;521087;521087;-0.437;-0.508;0.751;61.0;0.0;98.2
09:47:06.728772;1235;156628;159096;119214;141338;521087;521087;-0.433;-0.502;0.755;61.0;988.3;98.2
09:47:06.738731;1236;156627;159093;119210;141358;521087;521087;-0.435;-0.503;0.753;61.0;0.0;98.2
09:47:06.738731;1237;156610;159072;119203;141362;521087;521087;-0.438;-0.505;0.752;61.0;0.0;98.2
09:47:06.748924;1238;156597;159069;119203;141365;521087;521087;-0.440;-0.506;0.753;61.0;0.0;98.2
09:47:06.759022;1239;156590;159064;119205;141368;521087;521087;-0.437;-0.503;0.751;61.0;0.0;98.2
09:47:06.933947;1240;156576;159051;119206;141375;521087;521087;-0.436;-0.504;0.750;62.0;0.0;98.2
09:47:06.938979;1241;156558;159045;119182;141381;521087;521087;-0.441;-0.506;0.750;62.0;0.0;98.2
09:47:06.954087;1242;156561;159057;119188;141412;521087;521087;-0.441;-0.504;0.752;62.0;0.0;98.2
09:47:06.963968;1243;156563;159047;119196;141424;521087;521087;-0.442;-0.504;0.751;62.0;0.0;98.2
09:47:06.963968;1244;156565;159065;119187;141428;521087;521087;-0.439;-0.506;0.749;62.0;0.0;98.2
09:47:07.138684;1245;156565;159064;119187;141448;521087;521087;-0.440;-0.504;0.751;62.0;0.0;98.2
09:47:07.149068;1246;156582;159067;119195;141468;521087;521087;-0.438;-0.504;0.753;62.0;0.0;98.2
09:47:07.149068;1247;156599;159074;119196;141486;521087;521087;-0.442;-0.504;0.752;62.0;0.0;98.2
09:47:07.154073;1248;156614;159074;119194;141497;521087;521087;-0.441;-0.504;0.752;62.0;0.0;98.2
09:47:07.158607;1249;156632;159076;119192;141515;521087;521087;-0.441;-0.504;0.751;62.0;0.0;98.2
09:47:07.328885;1250;156661;159075;119191;141540;521087;521087;-0.443;-0.505;0.751;62.0;0.0;98.2
09:47:07.339104;1251;156683;159085;119199;141556;521087;521087;-0.446;-0.506;0.750;62.0;0.0;98.2
09:47:07.348755;1252;156703;159091;119206;141564;521087;521087;-0.443;-0.505;0.751;62.0;0.0;98.2
09:47:07.348755;1253;156738;159111;119209;141576;521087;521087;-0.439;-0.505;0.753;62.0;0.0;98.2
09:47:07.363999;1254;156774;159110;119212;141595;521087;521087;-0.444;-0.506;0.752;62.0;0.0;98.2
09:47:07.369019;1255;156792;159077;119204;141598;521087;521087;-0.442;-0.504;0.752;62.0;0.0;98.2
09:47:07.739156;1256;156788;159027;119188;141603;521087;521087;-0.436;-0.502;0.752;62.0;0.0;98.2
